Folder: herald_visualization/herald_visualization/Delia_Scripts/CoF3 (part 2)

File: CoF3_100min_fitted_data.csv
2Theta,Intensity
20.0084,7218.78
20.1784,7157.37
20.3484,7093.78
20.5184,7029.41
20.6884,6965.05
20.8584,6899.93
21.0284,6834.03
21.1984,6798.25
21.3684,6761.8
21.5384,6724.71
21.7084,6687.66
21.8784,6649.98
22.0484,6611.68
22.2184,6571.77
22.3884,6532.29
22.5584,6493.27
22.7284,6453.31
22.8984,6413.66
23.0684,6374.45
23.2384,6334.74
23.4084,6311.82
23.5784,6306.55
23.7484,6304.52
23.9184,6317.68
24.0884,6372.37
24.2584,6490.24
24.4284,6610.43
24.5984,6559.53
24.7684,6394.97
24.9384,6271.94
25.1084,6208.96
25.2784,6199.856
25.4484,6201.36
25.6184,6207.6
25.7884,6217.61
25.9584,6236.01
26.1284,6276.52
26.2984,6372.89
26.4684,6578.39
26.6384,6908.03
26.8084,7221.37
26.9784,7201.8
27.1484,6865.05
27.3184,6526.01
27.4884,6313.24
27.6584,6207.33
27.8284,6154.7
27.9984,6122.65
28.1684,6097.95
28.3384,6075.67
28.5084,6054.953
28.6784,6035
28.8484,6014.7
29.0184,5994.45
29.1884,5974.06
29.3584,5952.4
29.5284,5934.55
29.6984,5920.44
29.8684,5905.2
30.0384,5890.125
30.2084,5874.73
30.3784,5858.63
30.5484,5841.81
30.7184,5824.27
30.8884,5825.69
31.0584,5826.69
31.2284,5827.29
31.3984,5826.77
31.5684,5826.46
31.7384,5826.31
31.9084,5824.41
32.0784,5822.13
32.2484,5819.55
32.4184,5817.514
32.5884,5820.56
32.7584,5828.44
32.9284,5836.71
33.0984,5847.98
33.2684,5868.217
33.4384,5913.18
33.6084,6013.769
33.7784,6187.74
33.9484,6380.79
34.1184,6418.87
34.2884,6255.11
34.4584,6055.57
34.6284,5919.54
34.7984,5847.63
34.9684,5810.89
35.1384,5789.03
35.3084,5773.76
35.4784,5770.14
35.6484,5769.81
35.8184,5763.78
35.9884,5747.97
36.1584,5733.37
36.3284,5724.45
36.4984,5718.45
36.6684,5713.42
36.8384,5708.67
37.0084,5704.35
37.1784,5699.64
37.3484,5694.71
37.5184,5705.31
37.6884,5717.92
37.8584,5735.82
38.0284,5761.51
38.1984,5793.53
38.3684,5816.349
38.5384,5816.91
38.7084,5821.16
38.8784,5857.63
39.0484,5924.76
39.2184,5975.76
39.3884,5945.617
39.5584,5863.14
39.7284,5791.01
39.8984,5746.75
40.0684,5722.06
40.2384,5708.33
40.4084,5699.59
40.5784,5691.98
40.7484,5687.11
40.9184,5687.84
41.0884,5698.02
41.2584,5717.78
41.4284,5720.49
41.5984,5700.77
41.7684,5684.418
41.9384,5677.74
42.1084,5676.01
42.2784,5676.69
42.4484,5680.24
42.6184,5688.86
42.7884,5706.933
42.9584,5729.92
43.1284,5736.85
43.2984,5716.08
43.4684,5686.2
43.6384,5662.42
43.8084,5645.7
43.9784,5630
44.1484,5625.29
44.3184,5622.12
44.4884,5619.99
44.6584,5618.54
44.8284,5616.85
44.9984,5614.8
45.1684,5611.92
45.3384,5609.13
45.5084,5607.04
45.6784,5616.1
45.8484,5624.06
46.0184,5631.0
46.1884,5636.19
46.3584,5640.77
46.5284,5644.64
46.6984,5647.05
46.8684,5648.81
47.0384,5649.84
47.2084,5649.596
47.3784,5648.65
47.5484,5647.003
47.7184,5645.38
47.8884,5643.074
48.0584,5640.08
48.2284,5635.623
48.3984,5630.42
48.5684,5624.65
48.7384,5617.26
48.9084,5614.76
49.0784,5617.29
49.2484,5626.8
49.4184,5637.29
49.5884,5650.73
49.7584,5670.34
49.9284,5701.02
50.0984,5730.01
50.2684,5731.94
50.4384,5719.849
50.6084,5714.11
50.7784,5716.65
50.9484,5724.31
51.1184,5735.18
51.2884,5750.44
51.4584,5779.89
51.6284,5844.55
51.7984,5973.75
51.9684,6175.83
52.1384,6365.62
52.3084,6364.59
52.4784,6176.5
52.6484,5971.94
52.8184,5837.073
52.9884,5767.42
53.1584,5732.77
53.3284,5710.92
53.4984,5693.94
53.6684,5678.87
53.8384,5679.79
54.0084,5682.11
54.1784,5685.76
54.3484,5695.73
54.5184,5708.48
54.6884,5729.64
54.8584,5770.26
55.0284,5842.68
55.1984,5930.55
55.3684,5963.11
55.5384,5908.48
55.7084,5826.176
55.8784,5765.51
56.0484,5733.87
56.2184,5720.32
56.3884,5712
56.5584,5703.21
56.7284,5694.04
56.8984,5685.384
57.0684,5686.18
57.2384,5698.34
57.4084,5718.86
57.5784,5754.32
57.7484,5798.77
57.9184,5828.96
58.0884,5821.689
58.2584,5785.96
58.4284,5749.05
58.5984,5725.06
58.7684,5712.36
58.9384,5704.83
59.1084,5699.45
59.2784,5695.89
59.4484,5701.17
59.6184,5703.37
59.7884,5702.766
59.9584,5700.81
60.1284,5700
60.2984,5700.01
60.4684,5698.83
60.6384,5697.045
60.8084,5694.61
60.9784,5702.47
61.1484,5709.81
61.3184,5716.69
61.4884,5722.471
61.6584,5728.367
61.8284,5735.65
61.9984,5746.56
62.1684,5766.21
62.3384,5795.2
62.5084,5820.23
62.6784,5822.11
62.8484,5805.21
63.0184,5786.1
63.1884,5768.224
63.3584,5750.93
63.5284,5736.09
63.6984,5734.48
63.8684,5746.14
64.0384,5763.22
64.2084,5780.64
64.3784,5794.31
64.5484,5813.21
64.7184,5847.38
64.8884,5889.97
65.0584,5909.77
65.2284,5891.8
65.3984,5858.7
65.5684,5833.73
65.7384,5824.43
65.9084,5830.84
66.0784,5856.29
66.2484,5908.13
66.4184,5978.25
66.5884,6019.3
66.7584,5988.24
66.9284,5913.38
67.0984,5844.81
67.2684,5800.56
67.4384,5775.47
67.6084,5765.61
67.7784,5759.84
67.9484,5755.69
68.1184,5750.45
68.2884,5745.11
68.4584,5739.52
68.6284,5734.17
68.7984,5728.3
68.9684,5721.96
69.1384,5730.03
69.3084,5738.85
69.4784,5748.97
69.6484,5773.56
69.8184,5798.33
69.9884,5817.63

File: CoF3_100mins_Intensity.csv
2Theta,Intensity
20.0084,7218.0
20.1784,7166.78
20.3484,7208.73
20.5184,7086.665
20.6884,7104.2
20.8584,6954.43
21.0284,6683.81
21.1984,6923.13
21.3684,6903.214
21.5384,6810.01
21.7084,6740.65
21.8784,6702.949
22.0484,6537.6
22.2184,6613.16
22.3884,6600.68
22.5584,6564.46
22.7284,6539.47
22.8984,6485.69
23.0684,6490.38
23.2384,6309.05
23.4084,6394.28
23.5784,6385.66
23.7484,6211.81
23.9184,6293.35
24.0884,6314.76
24.2584,6618.9
24.4284,6609.39
24.5984,6469.09
24.7684,6397.147
24.9384,6247.66
25.1084,6083.61
25.2784,6136.99
25.4484,6208.55
25.6184,6225.38
25.7884,6182.23
25.9584,6222.51
26.1284,6343.48
26.2984,6409.65
26.4684,6574.01
26.6384,6796.8
26.8084,7228.28
26.9784,7250.24
27.1484,6784.34
27.3184,6442.8
27.4884,6297.02
27.6584,6248.97
27.8284,6132.889
27.9984,6230.14
28.1684,6040.87
28.3384,6161.2
28.5084,5972.33
28.6784,6117.28
28.8484,6159.69
29.0184,6039.17
29.1884,6040.5
29.3584,5943.75
29.5284,5861.09
29.6984,5996.55
29.8684,6090.41
30.0384,5858.6
30.2084,5870.771
30.3784,5973.63
30.5484,5966.33
30.7184,5731.28
30.8884,5904.98
31.0584,5898.82
31.2284,5795.888
31.3984,5764.82
31.5684,5829.57
31.7384,5769.96
31.9084,5935.7
32.0784,5779.1
32.2484,5868.77
32.4184,5791.8
32.5884,5924.74
32.7584,5951.54
32.9284,5847.66
33.0984,5813.12
33.2684,5924.69
33.4384,5855.335
33.6084,6053.82
33.7784,6324.82
33.9484,6410.12
34.1184,6400.36
34.2884,6152.45
34.4584,6018.372
34.6284,5969.29
34.7984,5911.45
34.9684,5828.893
35.1384,5722
35.3084,5703.03
35.4784,5711.37
35.6484,5698.35
35.8184,5966.23
35.9884,5735.07
36.1584,5735.11
36.3284,5681.96
36.4984,5768.67
36.6684,5731.92
36.8384,5635.46
37.0084,5757.01
37.1784,5727.976
37.3484,5716.51
37.5184,5699.51
37.6884,5662.47
37.8584,5821.991
38.0284,5743.88
38.1984,5857.859
38.3684,5841.19
38.5384,5833.69
38.7084,5858.24
38.8784,5946.46
39.0484,5898.39
39.2184,6046.09
39.3884,6069.53
39.5584,5806.56
39.7284,5805.09
39.8984,5740.54
40.0684,5775.19
40.2384,5761.89
40.4084,5717.33
40.5784,5733.29
40.7484,5597.49
40.9184,5810.91
41.0884,5848.79
41.2584,5663.09
41.4284,5725.58
41.5984,5655.3
41.7684,5767.46
41.9384,5693.2
42.1084,5623.35
42.2784,5686.7
42.4484,5671.81
42.6184,5841.55
42.7884,5726.34
42.9584,5645.01
43.1284,5668.74
43.2984,5720.1
43.4684,5689.37
43.6384,5690.51
43.8084,5651.377
43.9784,5635.65
44.1484,5714.7
44.3184,5758.47
44.4884,5637.93
44.6584,5678
44.8284,5736.89
44.9984,5530.318
45.1684,5644.51
45.3384,5598.03
45.5084,5632.65
45.6784,5697.21
45.8484,5728.12
46.0184,5627.91
46.1884,5649.11
46.3584,5690.02
46.5284,5737.31
46.6984,5747.59
46.8684,5572.66
47.0384,5711.41
47.2084,5733.91
47.3784,5606.15
47.5484,5691.7
47.7184,5591.83
47.8884,5543.61
48.0584,5696.289
48.2284,5625.298
48.3984,5621.36
48.5684,5577.18
48.7384,5685.36
48.9084,5638.44
49.0784,5634.81
49.2484,5708.57
49.4184,5616.67
49.5884,5676.37
49.7584,5689.87
49.9284,5737.55
50.0984,5732.907
50.2684,5682.53
50.4384,5620.96
50.6084,5772.05
50.7784,5740.995
50.9484,5767.91
51.1184,5751.06
51.2884,5726.24
51.4584,5824.29
51.6284,5898.41
51.7984,6092.81
51.9684,6187.13
52.1384,6490.54
52.3084,6314.61
52.4784,6069.02
52.6484,6071.51
52.8184,5965.93
52.9884,5815.62
53.1584,5915.32
53.3284,5659.16
53.4984,5562.273
53.6684,5723.68
53.8384,5634.96
54.0084,5677.13
54.1784,5665.82
54.3484,5663
54.5184,5694.78
54.6884,5767.03
54.8584,5813.48
55.0284,5877.13
55.1984,6015.35
55.3684,6019.06
55.5384,5895.28
55.7084,5823.11
55.8784,5785.19
56.0484,5787.171
56.2184,5771.04
56.3884,5804.2
56.5584,5822.42
56.7284,5796.78
56.8984,5747.68
57.0684,5774.46
57.2384,5768
57.4084,5711.97
57.5784,5673.13
57.7484,5784.57
57.9184,5853.15
58.0884,5871.392
58.2584,5950.11
58.4284,5774.95
58.5984,5767.11
58.7684,5779.66
58.9384,5719.21
59.1084,5719.62
59.2784,5687.79
59.4484,5716.69
59.6184,5650.3
59.7884,5724.44
59.9584,5729.1
60.1284,5795.27
60.2984,5746.07
60.4684,5777.32
60.6384,5780.04
60.8084,5674.2
60.9784,5698.45
61.1484,5737.04
61.3184,5736.71
61.4884,5653.82
61.6584,5763.66
61.8284,5750.545
61.9984,5764.9
62.1684,5834.33
62.3384,5581.3
62.5084,5797.79
62.6784,5807.04
62.8484,5797.08
63.0184,5836.26
63.1884,5752.91
63.3584,5883.99
63.5284,5866.08
63.6984,5770.09
63.8684,5800.22
64.0384,5795.67
64.2084,5842.41
64.3784,5704.66
64.5484,5796.417
64.7184,5847.81
64.8884,5761.81
65.0584,5881.5
65.2284,5934.42
65.3984,5774.13
65.5684,5863.81
65.7384,5841.156
65.9084,5788.392
66.0784,5775.47
66.2484,5873.17
66.4184,5883.45
66.5884,5941.25
66.7584,5967.97
66.9284,5881.25
67.0984,5802.66
67.2684,5713.71
67.4384,5703.07
67.6084,5723.699
67.7784,5841.34
67.9484,5726.1
68.1184,5666.92
68.2884,5816.53
68.4584,5783.15
68.6284,5777.62
68.7984,5739.04
68.9684,5775.46
69.1384,5788.63
69.3084,5690.79
69.4784,5687.28
69.6484,5832.58
69.8184,5857.28
69.9884,5803.66

File: CoF3_iback_100mins.csv
2Theta,Intensity
20.0084,7218.0
20.1784,7155.05
20.3484,7091.32
20.5184,7026.78
20.6884,6962.25
20.8584,6896.92
21.0284,6830.8
21.1984,6794.76
21.3684,6758.03
21.5384,6720.6
21.7084,6683.18
21.8784,6645.06
22.0484,6606.25
22.2184,6565.73
22.3884,6525.51
22.5584,6485.6
22.7284,6444.52
22.8984,6403.45
23.0684,6362.37
23.2384,6320.13
23.4084,6293.62
23.5784,6282.83
23.7484,6270.56
23.9184,6258.29
24.0884,6246.03
24.2584,6232.27
24.4284,6217.78
24.5984,6202.55
24.7684,6185.42
24.9384,6167.44
25.1084,6148.6
25.2784,6152.38
25.4484,6155.41
25.6184,6157.68
25.7884,6158.308
25.9584,6158.05
26.1284,6156.92
26.2984,6153.96
26.4684,6150.11
26.6384,6145.356
26.8084,6138.87
26.9784,6131.56
27.1484,6123.42
27.3184,6113.68
27.4884,6103.94
27.6584,6094.2
27.8284,6082.87
27.9984,6070.78
28.1684,6057.92
28.3384,6043.61
28.5084,6028.59
28.6784,6012.87
28.8484,5995.78
29.0184,5978.01
29.1884,5959.563
29.3584,5939.441
29.5284,5922.82
29.6984,5909.69
29.8684,5895.24
30.0384,5880.78
30.2084,5866.33
30.3784,5850.55
30.5484,5833.95
30.7184,5816.53
30.8884,5817.97
31.0584,5818.89
31.2284,5819.29
31.3984,5818.44
31.5684,5817.6
31.7384,5816.75
31.9084,5813.98
32.0784,5810.53
32.2484,5806.39
32.4184,5802.26
32.5884,5802.1
32.7584,5805.92
32.9284,5808.21
33.0984,5809.71
33.2684,5810.432
33.4384,5809.529
33.6084,5807.802
33.7784,5805.251
33.9484,5802.7
34.1184,5799.33
34.2884,5795.13
34.4584,5789.25
34.6284,5782.54
34.7984,5774.99
34.9684,5765.8
35.1384,5755.84
35.3084,5745.1
35.4784,5740.01
35.6484,5734.04
35.8184,5727.18
35.9884,5720.33
36.1584,5714.966
36.3284,5711.09
36.4984,5707.21
36.6684,5703.04
36.8384,5698.56
37.0084,5694.089
37.1784,5688.78
37.3484,5682.622
37.5184,5690.83
37.6884,5698.247
37.8584,5704.88
38.0284,5709.85
38.1984,5713.93
38.3684,5717.13
38.5384,5718.54
38.7084,5719.95
38.8784,5721.351
39.0484,5720.96
39.2184,5719.652
39.3884,5717.43
39.5584,5713.39
39.7284,5708.51
39.8984,5702.79
40.0684,5695.59
40.2384,5689.14
40.4084,5683.45
40.5784,5676.58
40.7484,5669.71
40.9184,5662.83
41.0884,5654.78
41.2584,5652.82
41.4284,5656.97
41.5984,5660.02
41.7684,5662.54
41.9384,5664.51
42.1084,5665.22
42.2784,5665.18
42.4484,5664.38
42.6184,5661.93
42.7884,5659.49
42.9584,5657.04
43.1284,5652.94
43.2984,5647.94
43.4684,5642.03
43.6384,5634.28
43.8084,5625.7
43.9784,5616.3
44.1484,5616.67
44.3184,5616.52
44.4884,5615.88
44.6584,5615.23
44.8284,5614.08
44.9984,5612.42
45.1684,5609.9
45.3384,5607.37
45.5084,5604.85
45.6784,5613.714
45.8484,5621.74
46.0184,5628.933
46.1884,5634.24
46.3584,5638.8
46.5284,5642.639
46.6984,5645.01
46.8684,5646.7
47.0384,5647.72
47.2084,5647.37
47.3784,5646.3
47.5484,5644.5
47.7184,5642.71
47.8884,5640.19
48.0584,5636.95
48.2284,5632.2
48.3984,5626.64
48.5684,5620.28
48.7384,5612.26
48.9084,5609.05
49.0784,5610.65
49.2484,5618.84
49.4184,5627.03
49.5884,5635.21
49.7584,5642.25
49.9284,5650.88
50.0984,5661.08
50.2684,5669.83
50.4384,5677.883
50.6084,5685.23
50.7784,5691.17
50.9484,5696.39
51.1184,5700.88
51.2884,5703.86
51.4584,5706.84
51.6284,5709.81
51.7984,5711.27
51.9684,5711.94
52.1384,5711.82
52.3084,5710.02
52.4784,5707.33
52.6484,5703.76
52.8184,5698.33
52.9884,5691.943
53.1584,5684.6
53.3284,5675.37
53.4984,5665.32
53.6684,5654.45
53.8384,5657.84
54.0084,5661.22
54.1784,5664.6
54.3484,5672.54
54.5184,5679.73
54.6884,5686.19
54.8584,5690.95
55.0284,5694.78
55.1984,5697.68
55.3684,5698.729
55.5384,5698.9
55.7084,5698.202
55.8784,5695.83
56.0484,5693.45
56.2184,5691.07
56.3884,5687.02
56.5584,5682.18
56.7284,5676.53
56.8984,5669.38
57.0684,5669
57.2384,5675.4
57.4084,5680.3
57.5784,5684.47
57.7484,5687.89
57.9184,5691.31
58.0884,5694
58.2584,5695.95
58.4284,5696.437
58.5984,5696.18
58.7684,5695.17
58.9384,5692.55
59.1084,5689.19
59.2784,5685.089
59.4484,5688.76
59.6184,5691.66
59.7884,5693.78
59.9584,5694.35
60.1284,5694.91
60.2984,5695.48
60.4684,5694.48
60.6384,5692.7
60.8084,5690.13
60.9784,5697.77
61.1484,5704.68
61.3184,5710.87
61.4884,5715.57
61.6584,5719.57
61.8284,5722.88
61.9984,5724.84
62.1684,5726.8
62.3384,5728.76
62.5084,5729.37
62.6784,5729.33
62.8484,5728.64
63.0184,5726.64
63.1884,5723.85
63.3584,5720.282
63.5284,5714.78
63.6984,5716.6
63.8684,5725.75
64.0384,5734.89
64.2084,5743.43
64.3784,5751.36
64.5484,5758.63
64.7184,5765.01
64.8884,5770.49
65.0584,5774.5
65.2284,5778.52
65.3984,5782.54
65.5684,5785.1
65.7384,5786.88
65.9084,5787.9
66.0784,5787.28
66.2484,5785.74
66.4184,5783.29
66.5884,5779.4
66.7584,5774.79
66.9284,5769.473
67.0984,5764.15
67.2684,5758.12
67.4384,5751.37
67.6084,5749.71
67.7784,5748.05
67.9484,5746.39
68.1184,5742.85
68.2884,5738.73
68.4584,5734.01
68.6284,5729.3
68.7984,5723.88
68.9684,5717.76
69.1384,5725.69
69.3084,5733.61
69.4784,5741.54
69.6484,5762.245
69.8184,5782.95
69.9884,5801.59

File: CoF3_ref.csv
2Theta,Intensity
24.412,100
33.995,14.6
35.581,5.9
40.933,0.4
41.222,15.6
43.623,2
50.03,14.5
55.335,16.3
56.112,1.6
57.507,7.3
59.798,1.7
62.891,3.8
63.903,4.9
66.762,0.7
71.557,2.7
74.745,1.1
75.017,1.3
75.333,0.8
76.612,0.4
78.734,0.3
78.927,0.3
79.388,0.8
80.574,2.7
82.551,1
85.281,0.3
85.88,0.1
88.745,0.9
88.745,0.9
89.503,0.9
91.314,0.5
95.994,0.2
96.596,0.6
98.156,0.3
99.485,0.2
100.909,0.1
102.1,0.1
104.108,0.1
104.922,0.1
106.926,0.9
107.277,0.1
107.874,0.2
110.626,0.1
111.595,0.1
113.174,0.2
115.497,0.1
119.227,0.6
122.561,0.6
123.466,0.7
125.467,0.1
125.7,0.1
125.7,0.1
128.109,0.6
129.118,0.2
131.647,0.5
132.452,0.2
132.869,0.1
135.641,0.1
136.461,0.2
137.856,0.1
138.535,0.1
140.079,0.3
140.33,0.4
143.232,0.1
148.347,0.1
149.506,0.1

File: CoF3_reference.csv
2Theta,Intensity
20.2655,23.21
24.3483,1000.00
26.8957,0.01
33.9085,612.93
35.4824,198.24
38.0706,52.53
40.8328,0.45
41.2020,25.56
43.5021,465.38
45.0795,28.40
45.9952,3.66
49.8926,119.63
55.1860,362.25
55.4360,0.00
55.4806,1.83
57.3407,147.58
59.4019,11.73
59.6405,91.73
62.7086,149.54
63.7122,68.95
65.4278,13.42
67.5660,5.12
70.4449,9.66
71.0982,0.00
71.1370,1.23
71.3542,30.59
74.8086,27.64
75.0975,61.93
76.6951,11.44
78.4922,45.02
78.7394,0.38
80.3151,42.80
81.4307,9.07
82.0539,2.21
82.2985,54.84
85.0030,49.44
85.6219,35.84
88.4824,18.24
89.2095,15.95
89.4152,3.82
89.4519,1.04
91.0014,30.00
92.0297,0.21
92.7574,0.41
95.6587,12.15
96.2789,25.89
99.1618,15.63
100.1077,4.36
100.1450,0.14
101.7231,22.84
102.7751,1.43
103.4839,2.62
103.5217,1.39
103.7332,30.49
106.5175,29.33
107.4543,13.95
108.9694,0.00
109.0860,2.00
112.7658,10.15
114.0059,0.29
114.0863,1.91
114.7638,3.62
114.8042,0.23
115.0310,9.24
118.7364,20.25
120.7151,0.95
122.0484,26.83
122.9102,76.16
123.1993,0.07
124.9368,20.31
125.0713,10.46
127.5038,28.41
130.9744,14.30
131.7965,20.90
132.1719,14.40
134.2987,2.25
135.7533,47.52
136.9447,0.00
137.1064,2.06
137.1603,1.32
139.3215,24.19
139.4908,46.98
141.1001,0.32
141.2172,2.48
142.2727,0.18
142.4289,17.11
147.2912,26.35
148.4510,29.47
151.9068,3.02
156.1683,36.84
156.4056,1.68
156.7753,0.25
161.0863,47.08
164.5687,3.13
167.4212,5.90
167.5909,7.80
168.0432,33.99
168.5872,50.53

File: Graphite_ref.csv
2Theta,Intensity
26.544,100
42.363,7
44.561,6
50.698,1
54.663,7
59.893,1
77.49,12
83.616,5
87.053,1
94.064,1
101.828,2

File: Graphite_reference_final.csv
2Theta,Intensity
26.61,1000.0
26.68,500.0
43.45,139.6
43.57,69.8
46.32,91.0
46.44,45.5
54.81,69.3
54.96,34.6
56.68,56.9
56.83,28.4
63.68,20.9
63.85,10.4
77.70,54.1
77.93,27.1
80.74,16.8
80.98,8.4
83.85,81.9
84.11,41.0
87.33,11.5
87.60,5.8
90.89,4.4
91.18,2.2
93.50,7.4
93.80,3.7
95.53,5.8
95.84,2.9
102.16,41.6
102.51,20.8
103.74,6.2
104.11,3.1
110.09,3.0
110.50,1.5
116.06,5.7
116.52,2.9
128.75,3.8
129.35,1.9
133.36,1.0
134.02,0.5
134.02,3.0
134.70,1.5
137.76,17.7
138.51,8.8
143.38,1.2
144.25,0.6
147.99,4.1
149.00,2.0
152.04,3.3
153.20,1.6