Folder: herald_visualization/herald_visualization/Delia_Scripts/CoF3

Note: readme.md
This package is designed for plotting the data in herald project.
mpr_to_csv is used for transforming raw biologic mpr files to human-readable csv files.

File: 240827-CoF3_1to1_KS6Lgraphite-0min_milled-20-70deg_40min.csv
2Theta,Intensity
20.0084,8543.0
20.1755,8554.0
20.3426,8493.0
20.5097,8385.0
20.6768,8373.0
20.8439,8243.0
21.011,8206.0
21.1781,8210.0
21.3453,7996.0
21.5124,7789.0
21.6795,7987.0
21.8466,7824.0
22.0137,7973.0
22.1808,7846.0
22.3479,7845.0
22.515,7688.0
22.6822,7679.0
22.8493,7584.0
23.0164,7738.0
23.1835,7458.0
23.3506,7535.0
23.5177,7387.0
23.6848,7678.0
23.8519,7548.0
24.0191,7714.0
24.1862,7865.0
24.3533,10862.0
24.5204,18286.0
24.6875,8678.0
24.8546,7404.0
25.0217,7341.0
25.1888,7331.0
25.356,7236.0
25.5231,7250.0
25.6902,7311.0
25.8573,7386.0
26.0244,7456.0
26.1915,7267.0
26.3586,7624.0
26.5258,8267.0
26.6929,7786.0
26.86,7517.0
27.0271,7160.0
27.1942,7160.0
27.3613,7101.0
27.5284,7060.0
27.6955,6887.0
27.8627,6987.0
28.0298,6923.0
28.1969,6954.0
28.364,6916.0
28.5311,7040.0
28.6982,6744.0
28.8653,7135.0
29.0324,6812.0
29.1996,6930.0
29.3667,6902.0
29.5338,6877.0
29.7009,6722.0
29.868,6889.0
30.0351,6758.0
30.2022,6768.0
30.3693,6671.0
30.5365,6715.0
30.7036,6718.0
30.8707,6695.0
31.0378,6724.0
31.2049,6606.0
31.372,6606.0
31.5391,6708.0
31.7062,6688.0
31.8734,6603.0
32.0405,6697.0
32.2076,6607.0
32.3747,6541.0
32.5418,6674.0
32.7089,6584.0
32.876,6515.0
33.0431,6528.0
33.2103,6760.0
33.3774,6625.0
33.5445,6480.0
33.7116,6656.0
33.8787,7001.0
34.0458,7923.0
34.2129,7173.0
34.38,6702.0
34.5472,6547.0
34.7143,6385.0
34.8814,6459.0
35.0485,6502.0
35.2156,6498.0
35.3827,6605.0
35.5498,6814.0
35.7169,6947.0
35.8841,6698.0
36.0512,6476.0
36.2183,6297.0
36.3854,6595.0
36.5525,6442.0
36.7196,6380.0
36.8867,6444.0
37.0538,6491.0
37.221,6477.0
37.3881,6407.0
37.5552,6311.0
37.7223,6401.0
37.8894,6426.0
38.0565,6391.0
38.2236,6410.0
38.3908,6293.0
38.5579,6315.0
38.725,6489.0
38.8921,6544.0
39.0592,6320.0
39.2263,6372.0
39.3934,6378.0
39.5605,6289.0
39.7277,6255.0
39.8948,6271.0
40.0619,6311.0
40.229,6239.0
40.3961,6322.0
40.5632,6343.0
40.7303,6348.0
40.8974,6386.0
41.0646,6720.0
41.2317,7175.0
41.3988,7550.0
41.5659,6706.0
41.733,6257.0
41.9001,6351.0
42.0672,6176.0
42.2343,6256.0
42.4015,6354.0
42.5686,6389.0
42.7357,6277.0
42.9028,6277.0
43.0699,6423.0
43.237,6354.0
43.4041,6386.0
43.5712,6434.0
43.7384,6540.0
43.9055,6392.0
44.0726,6392.0
44.2397,6134.0
44.4068,6374.0
44.5739,6132.0
44.741,6323.0
44.9081,6219.0
45.0753,6241.0
45.2424,6301.0
45.4095,6249.0
45.5766,6231.0
45.7437,6175.0
45.9108,6334.0
46.0779,6040.0
46.245,6200.0
46.4122,6260.0
46.5793,5940.0
46.7464,6329.0
46.9135,6169.0
47.0806,6121.0
47.2477,6253.0
47.4148,6115.0
47.5819,6149.0
47.7491,6103.0
47.9162,6274.0
48.0833,6313.0
48.2504,6191.0
48.4175,6158.0
48.5846,6205.0
48.7517,6185.0
48.9189,6092.0
49.086,6270.0
49.2531,6376.0
49.4202,6254.0
49.5873,6313.0
49.7544,6347.0
49.9215,6476.0
50.0886,7530.0
50.2558,7229.0
50.4229,6388.0
50.59,6257.0
50.7571,6365.0
50.9242,6278.0
51.0913,6319.0
51.2584,6109.0
51.4255,6098.0
51.5927,6057.0
51.7598,6181.0
51.9269,6169.0
52.094,6121.0
52.2611,6205.0
52.4282,6165.0
52.5953,6058.0
52.7624,6061.0
52.9296,6129.0
53.0967,6229.0
53.2638,5958.0
53.4309,6166.0
53.598,6106.0
53.7651,6148.0
53.9322,6096.0
54.0993,6185.0
54.2665,6146.0
54.4336,6284.0
54.6007,6207.0
54.7678,6378.0
54.9349,6348.0
55.102,6511.0
55.2691,6997.0
55.4362,7860.0
55.6034,7112.0
55.7705,6404.0
55.9376,6225.0
56.1047,6285.0
56.2718,6244.0
56.4389,6091.0
56.606,6248.0
56.7731,6194.0
56.9403,6234.0
57.1074,6284.0
57.2745,6234.0
57.4416,6430.0
57.6087,6719.0
57.7758,6757.0
57.9429,6463.0
58.11,6201.0
58.2772,6152.0
58.4443,6210.0
58.6114,6151.0
58.7785,6231.0
58.9456,5970.0
59.1127,6106.0
59.2798,6169.0
59.447,6159.0
59.6141,6172.0
59.7812,6355.0
59.9483,6306.0
60.1154,6134.0
60.2825,6037.0
60.4496,6270.0
60.6167,6149.0
60.7839,6115.0
60.951,6230.0
61.1181,6277.0
61.2852,6112.0
61.4523,6228.0
61.6194,5899.0
61.7865,6216.0
61.9536,6164.0
62.1208,5952.0
62.2879,6148.0
62.455,6255.0
62.6221,6325.0
62.7892,6213.0
62.9563,6378.0
63.1234,6500.0
63.2905,6329.0
63.4577,6248.0
63.6248,6339.0
63.7919,6178.0
63.959,6275.0
64.1261,6495.0
64.2932,6177.0
64.4603,6205.0
64.6274,6062.0
64.7946,6153.0
64.9617,6185.0
65.1288,6249.0
65.2959,6130.0
65.463,6049.0
65.6301,6184.0
65.7972,5981.0
65.9643,5790.0
66.1315,6069.0
66.2986,6056.0
66.4657,6034.0
66.6328,6213.0
66.7999,6001.0
66.967,6065.0
67.1341,6114.0
67.3012,6082.0
67.4684,6144.0
67.6355,5955.0
67.8026,6051.0
67.9697,6061.0
68.1368,6096.0
68.3039,5939.0
68.471,5978.0
68.6381,6085.0
68.8053,6154.0
68.9724,6114.0
69.1395,6098.0
69.3066,5980.0
69.4737,6194.0
69.6408,6158.0
69.8079,6071.0
69.975,6117.0
69.9918,5956.0

File: 240827-CoF3_1to1_KS6Lgraphite-100min_milled-20-70deg_40min.csv
2Theta,Intensity
20.0084,7218.0
20.1755,7140.0
20.3426,7188.0
20.5097,7082.0
20.6768,7042.0
20.8439,7046.0
21.011,6972.0
21.1781,6907.0
21.3453,6929.0
21.5124,6673.0
21.6795,6756.0
21.8466,6602.0
22.0137,6658.0
22.1808,6511.0
22.3479,6674.0
22.515,6498.0
22.6822,6443.0
22.8493,6365.0
23.0164,6441.0
23.1835,6335.0
23.3506,6193.0
23.5177,6160.0
23.6848,6154.0
23.8519,6294.0
24.0191,6417.0
24.1862,6279.0
24.3533,6496.0
24.5204,6572.0
24.6875,6322.0
24.8546,6228.0
25.0217,6228.0
25.1888,6195.0
25.356,6003.0
25.5231,6238.0
25.6902,6243.0
25.8573,6253.0
26.0244,6454.0
26.1915,6326.0
26.3586,6468.0
26.5258,6626.0
26.6929,6874.0
26.86,7287.0
27.0271,7238.0
27.1942,6620.0
27.3613,6369.0
27.5284,6145.0
27.6955,6196.0
27.8627,6013.0
28.0298,6128.0
28.1969,6146.0
28.364,6149.0
28.5311,5974.0
28.6982,6139.0
28.8653,5982.0
29.0324,6024.0
29.1996,5942.0
29.3667,5990.0
29.5338,5840.0
29.7009,6014.0
29.868,6093.0
30.0351,5846.0
30.2022,5888.0
30.3693,5917.0
30.5365,5935.0
30.7036,5818.0
30.8707,5826.0
31.0378,5892.0
31.2049,5882.0
31.372,5945.0
31.5391,6083.0
31.7062,5677.0
31.8734,5905.0
32.0405,6010.0
32.2076,5833.0
32.3747,5901.0
32.5418,5758.0
32.7089,5850.0
32.876,5885.0
33.0431,5762.0
33.2103,5766.0
33.3774,5804.0
33.5445,6103.0
33.7116,6043.0
33.8787,6447.0
34.0458,6401.0
34.2129,6266.0
34.38,6009.0
34.5472,6058.0
34.7143,5895.0
34.8814,5879.0
35.0485,5815.0
35.2156,5803.0
35.3827,5790.0
35.5498,5826.0
35.7169,5834.0
35.8841,5621.0
36.0512,5771.0
36.2183,5691.0
36.3854,5831.0
36.5525,5659.0
36.7196,5741.0
36.8867,5845.0
37.0538,5846.0
37.221,5665.0
37.3881,5649.0
37.5552,5706.0
37.7223,5802.0
37.8894,5646.0
38.0565,5835.0
38.2236,5928.0
38.3908,5932.0
38.5579,5790.0
38.725,5903.0
38.8921,5884.0
39.0592,5790.0
39.2263,6058.0
39.3934,6119.0
39.5605,5811.0
39.7277,5804.0
39.8948,5724.0
40.0619,5831.0
40.229,5814.0
40.3961,5699.0
40.5632,5659.0
40.7303,5661.0
40.8974,5732.0
41.0646,5745.0
41.2317,5620.0
41.3988,5754.0
41.5659,5652.0
41.733,5663.0
41.9001,5669.0
42.0672,5692.0
42.2343,5680.0
42.4015,5763.0
42.5686,5734.0
42.7357,5613.0
42.9028,5774.0
43.0699,5741.0
43.237,5821.0
43.4041,5815.0
43.5712,5803.0
43.7384,5659.0
43.9055,5647.0
44.0726,5657.0
44.2397,5607.0
44.4068,5645.0
44.5739,5667.0
44.741,5620.0
44.9081,5671.0
45.0753,5690.0
45.2424,5669.0
45.4095,5481.0
45.5766,5711.0
45.7437,5539.0
45.9108,5596.0
46.0779,5514.0
46.245,5747.0
46.4122,5669.0
46.5793,5720.0
46.7464,5617.0
46.9135,5676.0
47.0806,5581.0
47.2477,5742.0
47.4148,5571.0
47.5819,5699.0
47.7491,5802.0
47.9162,5520.0
48.0833,5584.0
48.2504,5506.0
48.4175,5548.0
48.5846,5584.0
48.7517,5530.0
48.9189,5651.0
49.086,5699.0
49.2531,5721.0
49.4202,5626.0
49.5873,5684.0
49.7544,5721.0
49.9215,5816.0
50.0886,5755.0
50.2558,5632.0
50.4229,5557.0
50.59,5635.0
50.7571,5873.0
50.9242,5675.0
51.0913,5688.0
51.2584,5852.0
51.4255,5721.0
51.5927,5761.0
51.7598,5935.0
51.9269,6119.0
52.094,6224.0
52.2611,6321.0
52.4282,6266.0
52.5953,6093.0
52.7624,5990.0
52.9296,5789.0
53.0967,5851.0
53.2638,5705.0
53.4309,5742.0
53.598,5764.0
53.7651,5708.0
53.9322,5838.0
54.0993,5777.0
54.2665,5732.0
54.4336,5689.0
54.6007,5768.0
54.7678,5776.0
54.9349,5815.0
55.102,5930.0
55.2691,6006.0
55.4362,5908.0
55.6034,5901.0
55.7705,5680.0
55.9376,5861.0
56.1047,5626.0
56.2718,5739.0
56.4389,5729.0
56.606,5772.0
56.7731,5736.0
56.9403,5667.0
57.1074,5767.0
57.2745,5660.0
57.4416,5693.0
57.6087,5899.0
57.7758,5957.0
57.9429,5945.0
58.11,5884.0
58.2772,5854.0
58.4443,5774.0
58.6114,5725.0
58.7785,5861.0
58.9456,5714.0
59.1127,5774.0
59.2798,5683.0
59.447,5714.0
59.6141,5611.0
59.7812,5776.0
59.9483,5705.0
60.1154,5810.0
60.2825,5802.0
60.4496,5757.0
60.6167,5744.0
60.7839,5753.0
60.951,5756.0
61.1181,5776.0
61.2852,5831.0
61.4523,5735.0
61.6194,5753.0
61.7865,5785.0
61.9536,5874.0
62.1208,5862.0
62.2879,5790.0
62.455,5801.0
62.6221,5754.0
62.7892,5824.0
62.9563,5797.0
63.1234,5878.0
63.2905,5995.0
63.4577,5908.0
63.6248,5712.0
63.7919,5813.0
63.959,5627.0
64.1261,5999.0
64.2932,5825.0
64.4603,5855.0
64.6274,5917.0
64.7946,5774.0
64.9617,5736.0
65.1288,5831.0
65.2959,5751.0
65.463,5785.0
65.6301,5793.0
65.7972,5900.0
65.9643,5864.0
66.1315,5912.0
66.2986,5935.0
66.4657,5841.0
66.6328,5916.0
66.7999,5946.0
66.967,5754.0
67.1341,5721.0
67.3012,5828.0
67.4684,5747.0
67.6355,5851.0
67.8026,5741.0
67.9697,5819.0
68.1368,5794.0
68.3039,5851.0
68.471,5705.0
68.6381,5787.0
68.8053,5894.0
68.9724,5787.0
69.1395,5791.0
69.3066,5691.0
69.4737,5677.0
69.6408,5710.0
69.8079,5770.0
69.975,5732.0
69.9918,5822.0

File: CoF2_ref.csv
2Theta,Intensity
26.829,100
34.027,52.3
38.306,7
39.2,21.7
43.039,6.7
52.158,57.7
55.29,15.8
57.969,9.5
62.498,7.5
63.127,0.5
64.993,10.3
66.535,18
69.857,1.2
71.634,2
72.524,0.2
74.855,1.2
79.461,3.4
82.02,2.2
84.272,5.8
85.123,0.8
88.213,2.5
90.449,3.8
91.856,4.3
94.385,1.9
96.343,1.5
99.456,0.5
99.747,0.1
101.178,0.4
109.011,4.1
109.316,2
110.217,0.1
112.619,0.6
113.54,1.9
116.004,2.5
117.579,3.8
119.158,0.1
122.755,2.7
123.098,2.4
126.503,0.2
132.708,4.3
136.247,0.5
139.142,1.2
144.606,0.2
146.096,0.5
147.112,0.2

File: CoF2_reference.csv
2Theta,Intensity
26.83,1000.0
26.90,500.0
34.01,577.5
34.10,288.8
38.31,86.0
38.41,43.0
39.19,194.0
39.29,97.0
43.05,61.3
43.16,30.6
52.15,691.2
52.29,345.6
55.30,196.3
55.45,98.2
57.92,112.6
58.08,56.3
62.51,102.1
62.68,51.0
63.12,6.1
63.30,3.0
64.95,139.2
65.13,69.6
66.53,240.9
66.72,120.5
69.85,13.5
70.05,6.8
71.59,30.5
71.80,15.3
72.54,2.4
72.74,1.2
74.82,13.6
75.04,6.8
79.46,52.7
79.70,26.4
82.03,32.6
82.28,16.3
84.24,81.0
84.50,40.5
85.14,9.4
85.40,4.7
88.23,36.4
88.50,18.2
90.42,54.5
90.70,27.3
91.86,63.8
92.15,31.9
94.40,25.9
94.71,12.9
94.95,0.5
95.26,0.3
96.25,20.4
96.57,10.2
99.37,4.5
99.70,2.3
99.72,1.2
100.06,0.6
101.18,3.8
101.53,1.9
108.92,45.6
109.32,22.8
109.29,21.9
109.69,10.9
110.24,1.0
110.65,0.5
112.59,5.7
113.02,2.9
113.56,20.7
114.00,10.3
115.98,25.6
116.43,12.8
117.59,37.0
118.06,18.5
119.06,0.4
119.55,0.2
121.13,0.0
121.64,0.0
122.66,23.1
123.18,11.6
123.07,20.2
123.60,10.1
124.15,0.0
124.68,0.0
126.40,1.1
126.97,0.6
132.73,34.4
133.38,17.2
136.29,4.5
137.00,2.3
139.02,8.2
139.79,4.1
144.57,0.8
145.47,0.4
146.15,2.8
147.10,1.4
147.14,1.2
148.12,0.6
150.31,18.1
151.40,9.1
151.12,3.5
152.25,1.8
159.74,4.4
161.40,2.2
161.39,0.0
163.22,0.0
166.00,11.0
168.56,5.5
169.52,6.3
173.31,3.1

File: CoF3-100min-fit-data.csv
"No.","Pos. [°2θ]","Q [1/Å]","Icalc [cts]","Iback [cts]","ESD","D spacings","CT [s]","Intensity [Counts]"
"1","20.0084","1.4170","7218.78","7218","84.9588","4.4341","99.6950","7218"
"26","20.4334","1.4468","7061.59","7059.05","84.4508","4.3429","99.6950","7131.94"
"51","20.8584","1.4765","6899.93","6896.92","83.3932","4.2553","99.6950","6954.43"
"76","21.2834","1.5063","6780.37","6776.74","83.6701","4.1713","99.6950","7000.68"
"101","21.7084","1.5360","6687.66","6683.18","82.1015","4.0906","99.6950","6740.65"
"126","22.1334","1.5657","6591.71","6585.99","81.6229","4.0130","99.6950","6662.3"
"151","22.5584","1.5954","6493.27","6485.6","81.0213","3.9383","99.6950","6564.46"
"176","22.9834","1.6250","6393.99","6382.91","79.7534","3.8665","99.6950","6360.6"
"201","23.4084","1.6547","6311.82","6293.62","79.9642","3.7972","99.6950","6394.28"
"226","23.8334","1.6843","6307.96","6264.43","79.0393","3.7305","99.6950","6247.22"
"251","24.2584","1.7139","6490.24","6232.27","81.3566","3.6661","99.6950","6618.9"
"276","24.6834","1.7434","6478","6193.98","79.7327","3.6039","99.6950","6357.31"
"301","25.1084","1.7730","6208.96","6148.6","77.9975","3.5438","99.6950","6083.61"
"326","25.5334","1.8025","6203.88","6156.54","79.0005","3.4858","99.6950","6241.08"
"351","25.9584","1.8320","6236.01","6158.05","78.8829","3.4297","99.6950","6222.51"
"376","26.3834","1.8615","6459.42","6152.48","80.7665","3.3754","99.6950","6523.22"
"401","26.8084","1.8909","7221.37","6138.87","85.0193","3.3228","99.6950","7228.28"
"426","27.2334","1.9203","6682.29","6118.55","81.7735","3.2720","99.6950","6686.9"
"451","27.6584","1.9497","6207.33","6094.2","79.0505","3.2226","99.6950","6248.97"
"476","28.0834","1.9791","6109.66","6064.35","78.5509","3.1748","99.6950","6170.24"
"501","28.5084","2.0084","6054.95","6028.59","77.2809","3.1284","99.6950","5972.33"
"526","28.9334","2.0377","6004.84","5987.23","77.6601","3.0835","99.6950","6031.09"
"551","29.3584","2.0670","5952.4","5939.44","77.0957","3.0398","99.6950","5943.75"
"576","29.7834","2.0962","5912.8","5902.46","77.1202","2.9974","99.6950","5947.53"
"601","30.2084","2.1255","5874.73","5866.33","76.6210","2.9562","99.6950","5870.77"
"626","30.6334","2.1547","5833.03","5825.24","76.8907","2.9161","99.6950","5912.18"
"651","31.0584","2.1838","5826.69","5818.89","76.8037","2.8772","99.6950","5898.82"
"676","31.4834","2.2129","5826.56","5818.02","76.2139","2.8393","99.6950","5808.56"
"701","31.9084","2.2421","5824.41","5813.98","77.0435","2.8024","99.6950","5935.7"
"726","32.3334","2.2711","5818.45","5804.32","76.8854","2.7666","99.6950","5911.36"
"751","32.7584","2.3002","5828.44","5805.92","77.1462","2.7316","99.6950","5951.54"
"776","33.1834","2.3292","5856.19","5810.07","76.4564","2.6976","99.6950","5845.57"
"801","33.6084","2.3581","6013.77","5807.8","77.8063","2.6645","99.6950","6053.82"
"826","34.0334","2.3871","6429.9","5801.42","80.4572","2.6322","99.6950","6473.36"
"851","34.4584","2.4160","6055.57","5789.25","77.5782","2.6007","99.6950","6018.37"
"876","34.8834","2.4449","5826.32","5770.4","76.6339","2.5699","99.6950","5872.75"
"901","35.3084","2.4737","5773.76","5745.1","75.5184","2.5400","99.6950","5703.03"
"926","35.7334","2.5025","5768.19","5730.61","75.8777","2.5107","99.6950","5757.42"
"951","36.1584","2.5313","5733.37","5714.97","75.7305","2.4822","99.6950","5735.11"
"976","36.5834","2.5601","5715.98","5705.27","75.8333","2.4543","99.6950","5750.69"
"1001","37.0084","2.5888","5704.35","5694.09","75.8749","2.4271","99.6950","5757.01"
"1026","37.4334","2.6174","5699.79","5686.72","76.4121","2.4005","99.6950","5838.8"
"1051","37.8584","2.6461","5735.82","5704.88","76.3020","2.3745","99.6950","5821.99"
"1076","38.2834","2.6747","5807.41","5715.53","76.2214","2.3492","99.6950","5809.7"
"1101","38.7084","2.7032","5821.16","5719.95","76.5392","2.3243","99.6950","5858.24"
"1126","39.1334","2.7317","5957.71","5720.76","76.7544","2.3001","99.6950","5891.24"
"1151","39.5584","2.7602","5863.14","5713.39","76.2008","2.2763","99.6950","5806.56"
"1176","39.9834","2.7887","5732.54","5699.19","74.9496","2.2531","99.6950","5617.45"
"1201","40.4084","2.8171","5699.59","5683.45","75.6130","2.2304","99.6950","5717.33"
"1226","40.8334","2.8455","5686.62","5666.27","75.2187","2.2081","99.6950","5657.85"
"1251","41.2584","2.8738","5717.78","5652.82","75.2535","2.1864","99.6950","5663.09"
"1276","41.6834","2.9021","5691.54","5661.55","75.3425","2.1651","99.6950","5676.49"
"1301","42.1084","2.9303","5676.01","5665.22","74.9890","2.1442","99.6950","5623.35"
"1326","42.5334","2.9586","5683.47","5663.16","74.4273","2.1237","99.6950","5539.43"
"1351","42.9584","2.9867","5729.92","5657.04","75.1333","2.1037","99.6950","5645.01"
"1376","43.3834","3.0149","5700.73","5644.99","75.7758","2.0841","99.6950","5741.97"
"1401","43.8084","3.0429","5645.7","5625.7","75.1756","2.0648","99.6950","5651.38"
"1426","44.2334","3.0710","5623.72","5616.85","75.0191","2.0460","99.6950","5627.87"
"1451","44.6584","3.0990","5618.54","5615.23","75.3525","2.0275","99.6950","5678"
"1476","45.0834","3.1270","5613.38","5611.16","75.8197","2.0094","99.6950","5748.62"
"1501","45.5084","3.1549","5607.04","5604.85","75.0510","1.9916","99.6950","5632.65"
"1526","45.9334","3.1828","5627.64","5625.34","75.3343","1.9741","99.6950","5675.26"
"1551","46.3584","3.2106","5640.77","5638.8","75.4322","1.9570","99.6950","5690.02"
"1576","46.7834","3.2384","5648.27","5646.19","75.3448","1.9402","99.6950","5676.84"
"1601","47.2084","3.2661","5649.6","5647.37","75.7226","1.9237","99.6950","5733.91"
"1626","47.6334","3.2938","5646.19","5643.61","74.6838","1.9076","99.6950","5577.67"
"1651","48.0584","3.3215","5640.08","5636.95","75.4738","1.8917","99.6950","5696.29"
"1676","48.4834","3.3491","5627.44","5623.46","75.0391","1.8761","99.6950","5630.86"
"1701","48.9084","3.3766","5614.76","5609.05","75.0895","1.8608","99.6950","5638.44"
"1726","49.3334","3.4042","5631.86","5622.93","75.1275","1.8457","99.6950","5644.14"
"1751","49.7584","3.4316","5670.34","5642.25","75.4312","1.8310","99.6950","5689.87"
"1776","50.1834","3.4590","5734.3","5665.46","74.7502","1.8165","99.6950","5587.59"
"1801","50.6084","3.4864","5714.11","5685.23","75.9740","1.8022","99.6950","5772.05"
"1826","51.0334","3.5137","5729.24","5698.64","75.5424","1.7882","99.6950","5706.66"
"1851","51.4584","3.5410","5779.89","5706.84","76.3170","1.7744","99.6950","5824.29"
"1876","51.8834","3.5682","6068.11","5712","77.3609","1.7609","99.6950","5984.71"
"1901","52.3084","3.5954","6364.59","5710.02","79.4645","1.7475","99.6950","6314.61"
"1926","52.7334","3.6226","5894.65","5701.05","76.6292","1.7345","99.6950","5872.03"
"1951","53.1584","3.6496","5732.77","5684.6","76.9111","1.7216","99.6950","5915.32"
"1976","53.5834","3.6767","5686.14","5659.89","74.8921","1.7089","99.6950","5608.83"
"2001","54.0084","3.7036","5682.11","5661.22","75.3467","1.6965","99.6950","5677.13"
"2026","54.4334","3.7306","5701.81","5676.5","75.4294","1.6842","99.6950","5689.59"
"2051","54.8584","3.7575","5770.26","5690.95","76.2462","1.6722","99.6950","5813.48"
"2076","55.2834","3.7843","5958.3","5698.2","78.0946","1.6603","99.6950","6098.77"
"2101","55.7084","3.8110","5826.18","5698.2","76.3093","1.6487","99.6950","5823.11"
"2126","56.1334","3.8378","5725.59","5692.26","75.2194","1.6372","99.6950","5657.96"
"2151","56.5584","3.8644","5703.21","5682.18","76.3048","1.6259","99.6950","5822.42"
"2176","56.9834","3.8911","5682","5665.8","75.1174","1.6148","99.6950","5642.63"
"2201","57.4084","3.9176","5718.86","5680.3","75.5776","1.6038","99.6950","5711.97"
"2226","57.8334","3.9441","5817.39","5689.6","76.1741","1.5931","99.6950","5802.5"
"2251","58.2584","3.9706","5785.96","5695.95","77.1369","1.5824","99.6950","5950.11"
"2276","58.6834","3.9970","5717.54","5695.68","75.0456","1.5720","99.6950","5631.84"
"2301","59.1084","4.0233","5699.45","5689.19","75.6281","1.5617","99.6950","5719.62"
"2326","59.5334","4.0496","5703.06","5690.6","76.2367","1.5516","99.6950","5812.04"
"2351","59.9584","4.0758","5700.81","5694.35","75.6908","1.5416","99.6950","5729.1"
"2376","60.3834","4.1020","5699.39","5694.98","76.0171","1.5317","99.6950","5778.6"
"2401","60.8084","4.1281","5694.61","5690.13","75.3273","1.5220","99.6950","5674.2"
"2426","61.2334","4.1542","5713.21","5707.78","74.8086","1.5125","99.6950","5596.33"
"2451","61.6584","4.1802","5728.37","5719.57","75.9188","1.5031","99.6950","5763.66"
"2476","62.0834","4.2062","5755.16","5725.82","76.4257","1.4938","99.6950","5840.89"
"2501","62.5084","4.2320","5820.23","5729.37","76.1432","1.4847","99.6950","5797.79"
"2526","62.9334","4.2579","5795.23","5727.64","75.8030","1.4757","99.6950","5746.09"
"2551","63.3584","4.2837","5750.93","5720.28","76.7072","1.4668","99.6950","5883.99"
"2576","63.7834","4.3094","5739.56","5721.17","76.3634","1.4580","99.6950","5831.36"
"2601","64.2084","4.3350","5780.64","5743.43","76.4357","1.4494","99.6950","5842.41"
"2626","64.6334","4.3606","5828.57","5762.27","76.7402","1.4409","99.6950","5889.05"
"2651","65.0584","4.3862","5909.77","5774.5","76.6909","1.4325","99.6950","5881.5"
"2676","65.4834","4.4116","5844.24","5783.82","76.2752","1.4242","99.6950","5817.91"
"2701","65.9084","4.4370","5830.84","5787.9","76.0815","1.4161","99.6950","5788.39"
"2726","66.3334","4.4624","5942.63","5784.52","77.0447","1.4080","99.6950","5935.88"
"2751","66.7584","4.4877","5988.24","5774.79","77.2527","1.4001","99.6950","5967.97"
"2776","67.1834","4.5129","5819.95","5761.49","76.0994","1.3923","99.6950","5791.11"
"2801","67.6084","4.5381","5765.61","5749.71","75.6551","1.3845","99.6950","5723.7"
"2826","68.0334","4.5632","5753","5744.62","75.9807","1.3769","99.6950","5773.07"
"2851","68.4584","4.5882","5739.52","5734.01","76.0470","1.3694","99.6950","5783.15"
"2876","68.8834","4.6132","5725.1","5720.82","75.4767","1.3620","99.6950","5696.73"
"2901","69.3084","4.6381","5738.85","5733.61","75.4373","1.3547","99.6950","5690.79"
"2926","69.7334","4.6630","5786.14","5772.6","76.9089","1.3475","99.6950","5914.98"
"2941","69.9884","4.6779","5817.63","5801.59","76.1818","1.3432","99.6950","5803.66"