Folder: herald_visualization/herald_visualization/Delia_Scripts/FeF3_1to1_KS6Lgraphite

Note: readme.md
This package is designed for plotting the data in herald project.
mpr_to_csv is used for transforming raw biologic mpr files to human-readable csv files.

File: 240828-FeF3_1to1_KS6Lgraphite-0min_milled-20-70deg_40min.csv
2Theta,Intensity
20.0254,6758.76
20.1954,6651.55
20.3654,6528.74
20.5354,6336.51
20.7054,6388.26
20.8754,6364.39
21.0454,6230.29
21.2154,6214.17
21.3854,6212.36
21.5554,6006.84
21.7254,5976.86
21.8954,5810.23
22.0654,5737.22
22.2354,5768.63
22.4054,5676.14
22.5754,5564.87
22.7454,5537.32
22.9154,5644.26
23.0854,5588.16
23.2554,5575.5
23.4254,5894.62
23.5954,7590.56
23.7654,17041.1
23.9354,12301.7
24.1054,5822.02
24.2754,5318.83
24.4454,5163.45
24.6154,5081.27
24.7854,4922.37
24.9554,5071.11
25.1254,4908.82
25.2954,5000.43
25.4654,4970.67
25.6354,4900.78
25.8054,4976.9
25.9754,4993.64
26.1454,5115.17
26.3154,5209.31
26.4854,6192.01
26.6554,5710.69
26.8254,5072.19
26.9954,4858.2
27.1654,4783.65
27.3354,4883.37
27.5054,4764.7
27.6754,4694.36
27.8454,4763.22
28.0154,4553.13
28.1854,4608.53
28.3554,4626.32
28.5254,4534.16
28.6954,4563.05
28.8654,4483.09
29.0354,4556.51
29.2054,4437.55
29.3754,4481.44
29.5454,4430.11
29.7154,4409.29
29.8854,4391.76
30.0554,4357.24
30.2254,4368.69
30.3954,4425.33
30.5654,4342.69
30.7354,4286.42
30.9054,4228.47
31.0754,4209.09
31.2454,4270.25
31.4154,4214.89
31.5854,4191.15
31.7554,4191.67
31.9254,4283.52
32.0954,4204.36
32.2654,4094.63
32.4354,4154.98
32.6054,4171.12
32.7754,4105.59
32.9454,4190.52
33.1154,4201.72
33.2854,4550.1
33.4554,6025.34
33.6254,4578.83
33.7954,4273.44
33.9654,4247.41
34.1354,4279.59
34.3054,4478.67
34.4754,4738.48
34.6454,4172.97
34.8154,4014.22
34.9854,3968.98
35.1554,3895.76
35.3254,3994.81
35.4954,3974.41
35.6654,3946.01
35.8354,3855.56
36.0054,3865.8
36.1754,3884.43
36.3454,3892.02
36.5154,3933.12
36.6854,3822.77
36.8554,3914.99
37.0254,3890.54
37.1954,3827.46
37.3654,3899.75
37.5354,3817.26
37.7054,3906.66
37.8754,3869.71
38.0454,3797.18
38.2154,3853.76
38.3854,3823.66
38.5554,3807.8
38.7254,3827.66
38.8954,3829.68
39.0654,3738.36
39.2354,3788.08
39.4054,3849.01
39.5754,3776.25
39.7454,3927.85
39.9154,4142.77
40.0854,4911.01
40.2554,4784.33
40.4254,3987.48
40.5954,3811.84
40.7654,3915.13
40.9354,3770.21
41.1054,3786.49
41.2754,3746.3
41.4454,3676.8
41.6154,3763.27
41.7854,3846.99
41.9554,3732.05
42.1254,3794.6
42.2954,3848.76
42.4654,3880.26
42.6354,3682.73
42.8054,3803.35
42.9754,3767.22
43.1454,3626.86
43.3154,3694.25
43.4854,3684.75
43.6554,3643.2
43.8254,3706.44
43.9954,3746.81
44.1654,3627.31
44.3354,3640.76
44.5054,3674.91
44.6754,3785.02
44.8454,3674.65
45.0154,3613.58
45.1854,3613.18
45.3554,3658.25
45.5254,3620.8
45.6954,3503.82
45.8654,3684.6
46.0354,3597.34
46.2054,3632.86
46.3754,3663.54
46.5454,3703.97
46.7154,3630.71
46.8854,3664.95
47.0554,3652.44
47.2254,3657.46
47.3954,3626.38
47.5654,3682.78
47.7354,3617.56
47.9054,3561.5
48.0754,3725.69
48.2454,3746.58
48.4154,3906.65
48.5854,4650.76
48.7554,5997.58
48.9254,4784.05
49.0954,3759.05
49.2654,3595.88
49.4354,3564.73
49.6054,3439.06
49.7754,3621.24
49.9454,3550.45
50.1154,3561.12
50.2854,3584.94
50.4554,3628.86
50.6254,3463.34
50.7954,3492.13
50.9654,3592.24
51.1354,3540.09
51.3054,3448.41
51.4754,3586.11
51.6454,3441.15
51.8154,3427.3
51.9854,3467.55
52.1554,3505.12
52.3254,3436.08
52.4954,3420.42
52.6654,3570.97
52.8354,3506.13
53.0054,3483.06
53.1754,3556.32
53.3454,3455.7
53.5154,3469.42
53.6854,3479.61
53.8554,3698.39
54.0254,3988.91
54.1954,5111.18
54.3654,5172.4
54.5354,4190.55
54.7054,3785.02
54.8754,3589.71
55.0454,3490.62
55.2154,3776.56
55.3854,3897.53
55.5554,4071.01
55.7254,4342.91
55.8954,3841.47
56.0654,3557.6
56.2354,3440.05
56.4054,3407.96
56.5754,3419.78
56.7454,3456.66
56.9154,3441.49
57.0854,3472.24
57.2554,3415.55
57.4254,3397.73
57.5954,3433.62
57.7654,3436.98
57.9354,3427.31
58.1054,3372.49
58.2754,3449.57
58.4454,3539.21
58.6154,3421.54
58.7854,3378.97
58.9554,3483.77
59.1254,3596.9
59.2954,3517.07
59.4654,3479.62
59.6354,3461.75
59.8054,3350.03
59.9754,3430
60.1454,3379.68
60.3154,3437.53
60.4854,3539.12
60.6554,3422.38
60.8254,3632.58
60.9954,3746.13
61.1654,3876.01
61.3354,3749.08
61.5054,3643.14
61.6754,3734.54
61.8454,3725.49
62.0154,3552.19
62.1854,3352.12
62.3554,3480.03
62.5254,3369.44
62.6954,3401.35
62.8654,3346.29
63.0354,3388.74
63.2054,3327.54
63.3754,3410.59
63.5454,3345.17
63.7154,3300.32
63.8854,3376.11
64.0554,3385.25
64.2254,3235.48
64.3954,3416.32
64.5654,3370.99
64.7354,3429.72
64.9054,3439.43
65.0754,3493.01
65.2454,3404.94
65.4154,3294.53
65.5854,3368.81
65.7554,3392.86
65.9254,3280.31
66.0954,3325.18
66.2654,3289.62
66.4354,3376.07
66.6054,3308.51
66.7754,3318.11
66.9454,3346.45
67.1154,3273.82
67.2854,3377.5
67.4554,3417.43
67.6254,3349.39
67.7954,3310.24
67.9654,3292.98
68.1354,3285.82
68.3054,3415.71
68.4754,3343.6
68.6454,3305.05
68.8154,3316.95
68.9854,3394.65
69.1554,3332.59
69.3254,3278.36
69.4954,3347.69
69.6654,3310.63
69.8354,3356.19
69.9884,3469.7

File: 240828-FeF3_1to1_KS6Lgraphite-100min_milled-20-70deg_40min.csv
2Theta,Intensity
20.0254,6562.04
20.1954,6646.76
20.3654,6548.58
20.5354,6422.37
20.7054,6367.72
20.8754,6183.32
21.0454,6204.25
21.2154,6063.99
21.3854,6138.9
21.5554,6008.22
21.7254,5903.4
21.8954,5807.34
22.0654,5681.12
22.2354,5744.88
22.4054,5699.01
22.5754,5611.1
22.7454,5634.55
22.9154,5786.23
23.0854,5784.91
23.2554,6125.2
23.4254,6420.64
23.5954,7487.46
23.7654,8914
23.9354,9069.26
24.1054,7954.77
24.2754,6703.26
24.4454,5888.07
24.6154,5578.3
24.7854,5202.61
24.9554,5143.56
25.1254,5220.78
25.2954,5007.71
25.4654,5061.58
25.6354,4947.71
25.8054,4841.27
25.9754,4993.14
26.1454,4948.31
26.3154,4858.28
26.4854,4857.68
26.6554,4939.02
26.8254,4748.1
26.9954,4831.58
27.1654,4798.23
27.3354,4788.69
27.5054,4757.11
27.6754,4654.79
27.8454,4735.65
28.0154,4653.19
28.1854,4689.12
28.3554,4717.78
28.5254,4586.04
28.6954,4598.45
28.8654,4468.22
29.0354,4441.26
29.2054,4479.22
29.3754,4550.04
29.5454,4427.82
29.7154,4473.23
29.8854,4532.17
30.0554,4413.87
30.2254,4393.2
30.3954,4385.08
30.5654,4339.56
30.7354,4357.36
30.9054,4495.11
31.0754,4398.98
31.2454,4305.84
31.4154,4246.82
31.5854,4309.71
31.7554,4259.85
31.9254,4425.17
32.0954,4196.47
32.2654,4184.72
32.4354,4225.33
32.6054,4254.77
32.7754,4325.47
32.9454,4408.44
33.1154,4387.67
33.2854,4625.86
33.4554,4609.34
33.6254,4635.69
33.7954,4643.17
33.9654,4460.02
34.1354,4313.24
34.3054,4407.32
34.4754,4412.63
34.6454,4286.24
34.8154,4323.39
34.9854,4239.53
35.1554,4164.99
35.3254,4156.54
35.4954,4157.76
35.6654,4052.83
35.8354,4030.51
36.0054,4143.36
36.1754,4040.43
36.3454,3981.17
36.5154,4050.26
36.6854,3924.37
36.8554,4071.05
37.0254,4022.45
37.1954,4059.43
37.3654,3979.2
37.5354,3969.98
37.7054,4084.73
37.8754,3986.91
38.0454,4081.56
38.2154,4078.5
38.3854,3969.79
38.5554,4032.2
38.7254,4012.86
38.8954,3961.33
39.0654,4007.46
39.2354,4037.66
39.4054,3974.95
39.5754,4064.66
39.7454,3966.11
39.9154,4197.75
40.0854,4255.31
40.2554,4371.76
40.4254,4347.73
40.5954,4262.24
40.7654,4253.57
40.9354,4094.77
41.1054,4025.87
41.2754,4057.32
41.4454,4050.72
41.6154,3955.32
41.7854,3915.25
41.9554,4001.84
42.1254,3959.43
42.2954,3996.09
42.4654,3972.53
42.6354,4044.57
42.8054,3897.52
42.9754,4017.74
43.1454,3921.36
43.3154,3945.63
43.4854,4008.3
43.6554,3998.34
43.8254,3993.88
43.9954,3873.88
44.1654,3900.05
44.3354,3936.24
44.5054,3895.16
44.6754,3884.6
44.8454,3845.88
45.0154,3889.85
45.1854,3897.87
45.3554,3830.13
45.5254,3862.02
45.6954,3767.02
45.8654,3809.26
46.0354,3921.22
46.2054,3799.03
46.3754,3855.04
46.5454,3816.48
46.7154,3825.46
46.8854,3817.32
47.0554,3842.73
47.2254,3879.5
47.3954,3876.64
47.5654,3856.01
47.7354,3921.21
47.9054,3831.31
48.0754,3938.87
48.2454,4132.06
48.4154,4093.45
48.5854,4284.75
48.7554,4543.91
48.9254,4519.19
49.0954,4349.47
49.2654,4219.2
49.4354,3985.82
49.6054,4017.81
49.7754,3926.9
49.9454,3849.37
50.1154,3804.11
50.2854,3740.37
50.4554,3776.94
50.6254,3815.3
50.7954,3766.56
50.9654,3794.17
51.1354,3773.79
51.3054,3778.59
51.4754,3794.87
51.6454,3832.47
51.8154,3793.07
51.9854,3805.46
52.1554,3760.83
52.3254,3844.38
52.4954,3667.6
52.6654,3768.89
52.8354,3799.24
53.0054,3783.57
53.1754,3906.09
53.3454,3880.29
53.5154,3880.82
53.6854,3999.91
53.8554,4199.8
54.0254,4167.79
54.1954,4395.17
54.3654,4326.17
54.5354,4504.28
54.7054,4361.62
54.8754,4282.25
55.0454,4111.4
55.2154,3999.72
55.3854,4021.9
55.5554,4089.85
55.7254,3966.24
55.8954,4046.59
56.0654,4036.38
56.2354,4006.75
56.4054,3808.27
56.5754,3832.85
56.7454,3831.72
56.9154,3794.41
57.0854,3685.81
57.2554,3701.17
57.4254,3707.89
57.5954,3745.47
57.7654,3739.99
57.9354,3644.72
58.1054,3769.81
58.2754,3772.33
58.4454,3724.66
58.6154,3717.77
58.7854,3780.21
58.9554,3724.66
59.1254,3823.78
59.2954,3825.07
59.4654,3651.42
59.6354,3728.13
59.8054,3686.35
59.9754,3776.52
60.1454,3817.32
60.3154,3811.82
60.4854,3819.07
60.6554,3762.55
60.8254,3749.24
60.9954,3814.44
61.1654,3857.1
61.3354,3902.06
61.5054,3862.04
61.6754,3952.81
61.8454,3868.51
62.0154,3823.44
62.1854,3863.84
62.3554,3897.26
62.5254,3797.05
62.6954,3801.3
62.8654,3772.95
63.0354,3741.97
63.2054,3777.54
63.3754,3874.88
63.5454,3697.97
63.7154,3666.66
63.8854,3684.8
64.0554,3670.81
64.2254,3731.33
64.3954,3702.42
64.5654,3712.95
64.7354,3596.2
64.9054,3670.57
65.0754,3629.17
65.2454,3694.07
65.4154,3724.26
65.5854,3643.18
65.7554,3654.46
65.9254,3741.98
66.0954,3715.81
66.2654,3642.63
66.4354,3760.07
66.6054,3638.76
66.7754,3737.67
66.9454,3711.39
67.1154,3591.25
67.2854,3797.49
67.4554,3647.1
67.6254,3637.4
67.7954,3673.19
67.9654,3612.01
68.1354,3644.18
68.3054,3679.14
68.4754,3729.2
68.6454,3754.76
68.8154,3691.1
68.9854,3634.79
69.1554,3729.43
69.3254,3700.24
69.4954,3763.94
69.6654,3690.61
69.8354,3723.29
69.9884,3709.04

File: FeF3_ref.csv
2Theta,Intensity
23.816,100
33.427,13.8
34.433,7.1
40.129,12.5
40.602,0.2
42.3,1.6
48.747,18.1
54.266,19.1
54.266,19.1
55.638,10.1
59.097,2
61.042,4.7
61.683,5.1
64.914,0.8

File: Refpattern_96-210-0636.csv
2Theta,Intensity
23.8888,500.0
33.4131,154.0
33.4986,77.0
34.4816,82.4
34.5700,41.2
40.1569,117.8
40.2610,58.9
40.5452,0.1
40.6504,0.1
42.3482,21.1
42.4585,10.6
48.7741,206.6
48.9032,103.3
54.2535,218.3
54.3113,18.3
54.3994,109.2
54.4574,9.1
55.7106,128.0
55.8612,64.0
59.0307,28.5
59.1919,14.3
61.0964,65.4
61.2645,32.7
61.7758,65.9
61.9462,32.9
64.9562,8.5
65.1376,4.3
70.1909,54.4
70.3911,27.2
72.7087,25.3
72.9184,12.6
73.4969,10.2
73.7097,5.1
74.0694,28.4
74.2844,14.2
74.7377,4.7
74.9553,2.3
76.2784,2.2
76.5022,1.1
76.5371,18.6
76.5853,12.3
76.7619,9.3
76.8103,6.1
77.7611,62.6
77.9909,31.3
80.6076,26.8
80.8494,13.4
82.4176,13.4
82.6672,6.7
84.3311,4.2
84.5892,2.1
85.8754,7.9
86.1406,4.0
86.7253,22.2
86.9945,11.1
87.7321,12.1
87.9200,13.6
88.0061,6.0
88.1949,6.8
92.5069,10.2
92.8048,5.1
94.4111,24.6
94.7191,12.3
95.0569,5.8
95.3684,2.9
96.8568,0.1
97.1783,0.0
97.8234,10.6
98.0129,9.2
98.1504,5.3
98.3411,4.6
100.8472,9.6
101.1923,4.8
102.5314,1.7
102.6757,33.0
102.8871,0.8
103.0323,16.5
103.2880,14.9
103.6486,7.5
104.0643,0.8
104.4299,0.4
106.2279,0.1
106.6082,0.0
106.8504,0.7
107.2350,0.4
111.3388,8.4
111.4576,12.0
111.7569,4.2
111.8766,6.0
115.3595,30.1
115.8110,15.0
116.0739,0.1
116.5317,0.0
118.0313,45.4
118.5071,22.7
119.1767,28.6
119.3920,1.6
119.6635,14.3
119.8809,0.8
122.4876,1.4
122.6547,32.1
122.7862,3.7
123.0086,0.7
123.1776,16.1
123.3104,1.8
124.6359,4.2
124.8072,24.2
125.1811,2.1
125.3544,12.1
125.5372,6.9
126.0931,3.5
127.1562,10.8
127.7321,5.4
129.8857,2.7
130.2756,2.8
130.4982,1.4
130.8937,1.4
131.5442,24.1
131.7955,32.1
132.1808,12.0
132.4360,16.0
132.5599,3.2
133.2121,1.6
135.8236,26.0
136.5306,13.0
138.2889,14.8
139.0428,7.4
139.9952,9.4
140.3617,0.8
140.7849,4.7
141.1595,0.4
141.2315,13.3
142.0490,6.7
143.7589,3.5
144.6393,1.8
145.2190,38.1
145.3013,0.6
146.1399,19.1
146.2246,0.3
147.3696,41.7
148.3569,20.8
152.6856,7.0
152.9941,43.1
153.8832,3.5
154.2065,21.6
156.8887,0.1
157.2501,29.7
158.3254,0.1
158.7118,14.9
160.3362,46.3
162.0535,23.1
165.1516,8.2
167.5256,4.1
169.1820,1.8
172.7894,0.9