Folder: herald_visualization/herald_visualization/Delia_Scripts/MnF3

Note: readme.md
This package is designed for plotting the data in herald project.
mpr_to_csv is used for transforming raw biologic mpr files to human-readable csv files.

File: 240918-MnF3_1to1_KS6Lgraphite-0min_milled-20-70deg_40min.csv
2Theta,Intensity
20.0084,4352.0
20.1755,4327.0
20.3426,4093.0
20.5097,4171.0
20.6768,4091.0
20.8439,3999.0
21.011,3777.0
21.1781,3822.0
21.3453,3752.0
21.5124,3663.0
21.6795,3623.0
21.8466,3579.0
22.0137,3517.0
22.1808,3466.0
22.3479,3384.0
22.515,3326.0
22.6822,3196.0
22.8493,3194.0
23.0164,3245.0
23.1835,3235.0
23.3506,3222.0
23.5177,3225.0
23.6848,3715.0
23.8519,7175.0
24.0191,13119.0
24.1862,3799.0
24.3533,4203.0
24.5204,10323.0
24.6875,3242.0
24.8546,3062.0
25.0217,2816.0
25.1888,2784.0
25.356,2949.0
25.5231,3285.0
25.6902,3594.0
25.8573,3086.0
26.0244,2806.0
26.1915,2934.0
26.3586,3240.0
26.5258,4956.0
26.6929,3209.0
26.86,2714.0
27.0271,2547.0
27.1942,2528.0
27.3613,2551.0
27.5284,2539.0
27.6955,2493.0
27.8627,2456.0
28.0298,2521.0
28.1969,2470.0
28.364,2444.0
28.5311,2406.0
28.6982,2432.0
28.8653,2257.0
29.0324,2395.0
29.1996,2251.0
29.3667,2310.0
29.5338,2301.0
29.7009,2190.0
29.868,2319.0
30.0351,2158.0
30.2022,2157.0
30.3693,2177.0
30.5365,2239.0
30.7036,2247.0
30.8707,2156.0
31.0378,2173.0
31.2049,2091.0
31.372,2215.0
31.5391,2248.0
31.7062,2029.0
31.8734,2083.0
32.0405,2109.0
32.2076,2114.0
32.3747,2179.0
32.5418,2947.0
32.7089,2673.0
32.876,2051.0
33.0431,1962.0
33.2103,1998.0
33.3774,2015.0
33.5445,1987.0
33.7116,2009.0
33.8787,2613.0
34.0458,3231.0
34.2129,2054.0
34.38,1950.0
34.5472,1856.0
34.7143,2028.0
34.8814,1949.0
35.0485,2534.0
35.2156,2283.0
35.3827,1991.0
35.5498,2007.0
35.7169,1983.0
35.8841,1771.0
36.0512,1868.0
36.2183,1980.0
36.3854,1956.0
36.5525,1889.0
36.7196,1772.0
36.8867,1841.0
37.0538,1768.0
37.221,1801.0
37.3881,1786.0
37.5552,1801.0
37.7223,1756.0
37.8894,1687.0
38.0565,1753.0
38.2236,1752.0
38.3908,1687.0
38.5579,1769.0
38.725,1774.0
38.8921,1751.0
39.0592,1734.0
39.2263,1716.0
39.3934,1656.0
39.5605,1804.0
39.7277,1978.0
39.8948,2955.0
40.0619,1884.0
40.229,1824.0
40.3961,1773.0
40.5632,1760.0
40.7303,1789.0
40.8974,1933.0
41.0646,2465.0
41.2317,2394.0
41.3988,2696.0
41.5659,1913.0
41.733,1719.0
41.9001,1704.0
42.0672,1787.0
42.2343,1852.0
42.4015,1678.0
42.5686,1647.0
42.7357,1626.0
42.9028,1703.0
43.0699,1601.0
43.237,1585.0
43.4041,1610.0
43.5712,1700.0
43.7384,1886.0
43.9055,1742.0
44.0726,1549.0
44.2397,1538.0
44.4068,1498.0
44.5739,1545.0
44.741,1593.0
44.9081,1518.0
45.0753,1513.0
45.2424,1559.0
45.4095,1537.0
45.5766,1444.0
45.7437,1572.0
45.9108,1530.0
46.0779,1505.0
46.245,1516.0
46.4122,1484.0
46.5793,1462.0
46.7464,1568.0
46.9135,1541.0
47.0806,1514.0
47.2477,1497.0
47.4148,1455.0
47.5819,1498.0
47.7491,1491.0
47.9162,1491.0
48.0833,1493.0
48.2504,1521.0
48.4175,1566.0
48.5846,1562.0
48.7517,1594.0
48.9189,1950.0
49.086,3370.0
49.2531,2033.0
49.4202,1558.0
49.5873,1479.0
49.7544,1442.0
49.9215,1526.0
50.0886,1660.0
50.2558,2396.0
50.4229,1628.0
50.59,1452.0
50.7571,1507.0
50.9242,1473.0
51.0913,1437.0
51.2584,1444.0
51.4255,1515.0
51.5927,1418.0
51.7598,1478.0
51.9269,1433.0
52.094,1431.0
52.2611,1577.0
52.4282,1614.0
52.5953,1663.0
52.7624,1614.0
52.9296,1554.0
53.0967,1760.0
53.2638,2279.0
53.4309,1692.0
53.598,1437.0
53.7651,1444.0
53.9322,1434.0
54.0993,1461.0
54.2665,1494.0
54.4336,1487.0
54.6007,1679.0
54.7678,2622.0
54.9349,2382.0
55.102,1548.0
55.2691,1458.0
55.4362,1613.0
55.6034,2376.0
55.7705,2040.0
55.9376,1556.0
56.1047,1537.0
56.2718,1730.0
56.4389,1691.0
56.606,1475.0
56.7731,1447.0
56.9403,1472.0
57.1074,1874.0
57.2745,1927.0
57.4416,1722.0
57.6087,1479.0
57.7758,1313.0
57.9429,1462.0
58.11,1461.0
58.2772,1686.0
58.4443,1619.0
58.6114,1462.0
58.7785,1405.0
58.9456,1358.0
59.1127,1339.0
59.2798,1412.0
59.447,1400.0
59.6141,1449.0
59.7812,1442.0
59.9483,1450.0
60.1154,1373.0
60.2825,1469.0
60.4496,1420.0
60.6167,1554.0
60.7839,1312.0
60.951,1386.0
61.1181,1394.0
61.2852,1392.0
61.4523,1376.0
61.6194,1344.0
61.7865,1361.0
61.9536,1463.0
62.1208,1449.0
62.2879,1449.0
62.455,1475.0
62.6221,1800.0
62.7892,1686.0
62.9563,1854.0
63.1234,1738.0
63.2905,1579.0
63.4577,1542.0
63.6248,1780.0
63.7919,1647.0
63.959,1409.0
64.1261,1417.0
64.2932,1278.0
64.4603,1327.0
64.6274,1304.0
64.7946,1305.0
64.9617,1313.0
65.1288,1280.0
65.2959,1351.0
65.463,1354.0
65.6301,1364.0
65.7972,1364.0
65.9643,1304.0
66.1315,1385.0
66.2986,1351.0
66.4657,1326.0
66.6328,1321.0
66.7999,1296.0
66.967,1340.0
67.1341,1365.0
67.3012,1395.0
67.4684,1331.0
67.6355,1347.0
67.8026,1302.0
67.9697,1270.0
68.1368,1352.0
68.3039,1427.0
68.471,1444.0
68.6381,1341.0
68.8053,1331.0
68.9724,1227.0
69.1395,1270.0
69.3066,1283.0
69.4737,1326.0
69.6408,1299.0
69.8079,1230.0
69.975,1248.0
69.9918,1332.0

File: 240920-MnF3_1to1_KS6Lgraphite-100min_milled-20-70deg_40min.csv
2Theta,Intensity
20.0084,4505.0
20.1755,4400.0
20.3426,4282.0
20.5097,4314.0
20.6768,4121.0
20.8439,4207.0
21.011,4059.0
21.1781,3926.0
21.3453,3934.0
21.5124,3877.0
21.6795,3835.0
21.8466,3693.0
22.0137,3756.0
22.1808,3742.0
22.3479,3474.0
22.515,3560.0
22.6822,3618.0
22.8493,3890.0
23.0164,4184.0
23.1835,3946.0
23.3506,3776.0
23.5177,3700.0
23.6848,3804.0
23.8519,4073.0
24.0191,4364.0
24.1862,4026.0
24.3533,3814.0
24.5204,3532.0
24.6875,3189.0
24.8546,3089.0
25.0217,3040.0
25.1888,3007.0
25.356,3060.0
25.5231,3055.0
25.6902,3072.0
25.8573,3018.0
26.0244,3049.0
26.1915,2998.0
26.3586,3071.0
26.5258,2948.0
26.6929,3117.0
26.86,3247.0
27.0271,3488.0
27.1942,3529.0
27.3613,3307.0
27.5284,2969.0
27.6955,2900.0
27.8627,2761.0
28.0298,2739.0
28.1969,2740.0
28.364,2828.0
28.5311,2895.0
28.6982,2931.0
28.8653,3183.0
29.0324,3234.0
29.1996,2910.0
29.3667,2674.0
29.5338,2611.0
29.7009,2552.0
29.868,2397.0
30.0351,2384.0
30.2022,2338.0
30.3693,2331.0
30.5365,2290.0
30.7036,2300.0
30.8707,2291.0
31.0378,2310.0
31.2049,2187.0
31.372,2200.0
31.5391,2181.0
31.7062,2178.0
31.8734,2222.0
32.0405,2143.0
32.2076,2212.0
32.3747,2149.0
32.5418,2180.0
32.7089,2259.0
32.876,2233.0
33.0431,2083.0
33.2103,2086.0
33.3774,2212.0
33.5445,2116.0
33.7116,2085.0
33.8787,2231.0
34.0458,2182.0
34.2129,2060.0
34.38,2080.0
34.5472,2060.0
34.7143,2086.0
34.8814,2101.0
35.0485,2078.0
35.2156,1978.0
35.3827,2106.0
35.5498,2061.0
35.7169,2067.0
35.8841,2053.0
36.0512,2060.0
36.2183,2078.0
36.3854,1899.0
36.5525,1943.0
36.7196,1962.0
36.8867,1960.0
37.0538,1826.0
37.221,1901.0
37.3881,1945.0
37.5552,1912.0
37.7223,2002.0
37.8894,1945.0
38.0565,2013.0
38.2236,1991.0
38.3908,2000.0
38.5579,1850.0
38.725,1836.0
38.8921,1913.0
39.0592,1835.0
39.2263,1825.0
39.3934,1858.0
39.5605,1917.0
39.7277,1930.0
39.8948,1981.0
40.0619,1849.0
40.229,1882.0
40.3961,1769.0
40.5632,1888.0
40.7303,1891.0
40.8974,1859.0
41.0646,1964.0
41.2317,1933.0
41.3988,1884.0
41.5659,1961.0
41.733,1838.0
41.9001,1739.0
42.0672,1813.0
42.2343,1771.0
42.4015,1721.0
42.5686,1785.0
42.7357,1765.0
42.9028,1744.0
43.0699,1654.0
43.237,1690.0
43.4041,1732.0
43.5712,1735.0
43.7384,1764.0
43.9055,1702.0
44.0726,1776.0
44.2397,1660.0
44.4068,1670.0
44.5739,1770.0
44.741,1606.0
44.9081,1749.0
45.0753,1643.0
45.2424,1681.0
45.4095,1722.0
45.5766,1752.0
45.7437,1647.0
45.9108,1751.0
46.0779,1679.0
46.245,1732.0
46.4122,1752.0
46.5793,1877.0
46.7464,1876.0
46.9135,1849.0
47.0806,1907.0
47.2477,1926.0
47.4148,1771.0
47.5819,1710.0
47.7491,1706.0
47.9162,1549.0
48.0833,1652.0
48.2504,1621.0
48.4175,1657.0
48.5846,1711.0
48.7517,1736.0
48.9189,1796.0
49.086,1725.0
49.2531,1739.0
49.4202,1763.0
49.5873,1807.0
49.7544,1809.0
49.9215,1860.0
50.0886,1976.0
50.2558,2050.0
50.4229,1848.0
50.59,1858.0
50.7571,1825.0
50.9242,1737.0
51.0913,1690.0
51.2584,1661.0
51.4255,1689.0
51.5927,1757.0
51.7598,1771.0
51.9269,1720.0
52.094,1626.0
52.2611,1601.0
52.4282,1594.0
52.5953,1713.0
52.7624,1617.0
52.9296,1601.0
53.0967,1652.0
53.2638,1670.0
53.4309,1714.0
53.598,1629.0
53.7651,1589.0
53.9322,1566.0
54.0993,1627.0
54.2665,1583.0
54.4336,1687.0
54.6007,1657.0
54.7678,1746.0
54.9349,1734.0
55.102,1811.0
55.2691,1761.0
55.4362,1847.0
55.6034,1793.0
55.7705,1864.0
55.9376,1835.0
56.1047,1879.0
56.2718,1861.0
56.4389,1764.0
56.606,1740.0
56.7731,1763.0
56.9403,1787.0
57.1074,1652.0
57.2745,1642.0
57.4416,1625.0
57.6087,1621.0
57.7758,1588.0
57.9429,1599.0
58.11,1585.0
58.2772,1564.0
58.4443,1645.0
58.6114,1596.0
58.7785,1573.0
58.9456,1556.0
59.1127,1566.0
59.2798,1569.0
59.447,1546.0
59.6141,1569.0
59.7812,1558.0
59.9483,1628.0
60.1154,1667.0
60.2825,1668.0
60.4496,1589.0
60.6167,1625.0
60.7839,1678.0
60.951,1655.0
61.1181,1676.0
61.2852,1651.0
61.4523,1630.0
61.6194,1685.0
61.7865,1693.0
61.9536,1563.0
62.1208,1675.0
62.2879,1687.0
62.455,1629.0
62.6221,1612.0
62.7892,1644.0
62.9563,1526.0
63.1234,1580.0
63.2905,1629.0
63.4577,1642.0
63.6248,1556.0
63.7919,1573.0
63.959,1563.0
64.1261,1527.0
64.2932,1578.0
64.4603,1587.0
64.6274,1499.0
64.7946,1567.0
64.9617,1424.0
65.1288,1473.0
65.2959,1495.0
65.463,1536.0
65.6301,1512.0
65.7972,1496.0
65.9643,1510.0
66.0145,1572.0

File: fitted-MnF3_1to1_KS6Lgraphite-0min_milled-20-70deg_40min.csv
2Theta,Intensity
20.0254,4341.18
20.1954,4310.39
20.3654,4169.48
20.5354,4105.55
20.7054,4089.5
20.8754,3914.11
21.0454,3902.41
21.2154,3874.38
21.3854,3752.69
21.5554,3766.86
21.7254,3648.49
21.8954,3574.9
22.0654,3490.85
22.2354,3400.99
22.4054,3392.65
22.5754,3333.41
22.7454,3237.87
22.9154,3258.95
23.0854,3220.33
23.2554,3290.7
23.4254,3175.68
23.5954,3358.43
23.7654,4538.78
23.9354,15927.3
24.1054,4922.6
24.2754,3714.29
24.4454,6601.11
24.6154,4773.44
24.7854,3004.84
24.9554,2968.33
25.1254,2818.16
25.2954,2834.88
25.4654,3077.37
25.6354,3715.05
25.8054,3211.85
25.9754,2847.13
26.1454,2833.23
26.3154,3089.16
26.4854,4493.7
26.6554,3473.33
26.8254,2805.3
26.9954,2592.26
27.1654,2631.35
27.3354,2529.81
27.5054,2611.63
27.6754,2519.38
27.8454,2530.86
28.0154,2480.47
28.1854,2414.84
28.3554,2405.25
28.5254,2393.28
28.6954,2411.46
28.8654,2257.23
29.0354,2381.57
29.2054,2268.71
29.3754,2291.8
29.5454,2298.23
29.7154,2261.84
29.8854,2212.11
30.0554,2188.12
30.2254,2184.7
30.3954,2197.55
30.5654,2164.22
30.7354,2160.58
30.9054,2216.83
31.0754,2126.47
31.2454,2174.26
31.4154,2274.66
31.5854,2168.06
31.7554,2080.39
31.9254,2082.21
32.0954,2060.92
32.2654,2038.14
32.4354,2166.81
32.6054,3584.32
32.7754,2197.16
32.9454,2096.3
33.1154,1969.07
33.2854,1982.01
33.4554,2032.33
33.6254,2048.7
33.7954,2121.17
33.9654,3963.84
34.1354,2277.6
34.3054,1971.93
34.4754,1993.7
34.6454,1999.54
34.8154,1945.95
34.9854,2199.86
35.1554,2474.48
35.3254,1904.45
35.4954,1958.68
35.6654,1982.91
35.8354,1839.95
36.0054,1932.76
36.1754,1921.43
36.3454,1958.26
36.5154,1915.44
36.6854,1834.77
36.8554,1853.43
37.0254,1771.69
37.1954,1766.7
37.3654,1779.9
37.5354,1769.03
37.7054,1779.89
37.8754,1722.33
38.0454,1718.24
38.2154,1752
38.3854,1691.2
38.5554,1753.69
38.7254,1772.84
38.8954,1738.3
39.0654,1730.32
39.2354,1741.43
39.4054,1713.1
39.5754,1796.91
39.7454,2139.63
39.9154,2679.33
40.0854,1861.21
40.2554,1775.59
40.4254,1735.26
40.5954,1803.54
40.7654,1922.2
40.9354,1980.67
41.1054,2560.11
41.2754,2369.87
41.4454,2432.48
41.6154,1774.7
41.7854,1678.1
41.9554,1652.98
42.1254,1882.25
42.2954,1828.7
42.4654,1676.82
42.6354,1571.08
42.8054,1582.14
42.9754,1686.08
43.1454,1621.22
43.3154,1628.57
43.4854,1663.61
43.6554,1728.11
43.8254,1735.76
43.9954,1545.71
44.1654,1576.2
44.3354,1663.67
44.5054,1498.04
44.6754,1592.11
44.8454,1520.58
45.0154,1499.68
45.1854,1581
45.3554,1573.05
45.5254,1464.58
45.6954,1503.76
45.8654,1498.11
46.0354,1483.68
46.2054,1499.62
46.3754,1524.98
46.5454,1407.93
46.7154,1534.86
46.8854,1473.59
47.0554,1514.24
47.2254,1494.39
47.3954,1505.35
47.5654,1511.9
47.7354,1507.4
47.9054,1473.52
48.0754,1485.88
48.2454,1514.96
48.4154,1553.22
48.5854,1557.24
48.7554,1606.34
48.9254,2014.22
49.0954,3130.58
49.2654,1940.42
49.4354,1547.11
49.6054,1467.57
49.7754,1523.37
49.9454,1476.56
50.1154,1699.8
50.2854,2147.17
50.4554,1601.13
50.6254,1551.87
50.7954,1457.07
50.9654,1432.94
51.1354,1430.49
51.3054,1454.64
51.4754,1455.19
51.6454,1409.62
51.8154,1435.02
51.9854,1430.98
52.1554,1493.1
52.3254,1562.17
52.4954,1719.97
52.6654,1682.91
52.8354,1604.87
53.0054,1566.61
53.1754,2464.6
53.3454,2189.95
53.5154,1551.45
53.6854,1371.39
53.8554,1408
54.0254,1438.33
54.1954,1448.25
54.3654,1478.03
54.5354,1650.28
54.7054,2015.26
54.8754,2343.22
55.0454,1685.79
55.2154,1449.56
55.3854,1533.67
55.5554,1975.13
55.7254,2050.88
55.8954,1569.35
56.0654,1511.27
56.2354,1626.25
56.4054,1742.21
56.5754,1509.69
56.7454,1473.37
56.9154,1540.92
57.0854,1754.92
57.2554,1917.05
57.4254,1852.24
57.5954,1532.54
57.7654,1370
57.9354,1431.15
58.1054,1445.27
58.2754,1689.78
58.4454,1615.05
58.6154,1437.78
58.7854,1379.97
58.9554,1392.4
59.1254,1391.91
59.2954,1358.14
59.4654,1379.9
59.6354,1432.16
59.8054,1564.91
59.9754,1425.63
60.1454,1393.43
60.3154,1404.55
60.4854,1581.79
60.6554,1460.36
60.8254,1375.24
60.9954,1370.99
61.1654,1317.99
61.3354,1347.98
61.5054,1288.25
61.6754,1364.99
61.8454,1365.15
62.0154,1336.48
62.1854,1383.66
62.3554,1479.73
62.5254,1603.83
62.6954,1700.1
62.8654,1702.62
63.0354,1766.73
63.2054,1624.39
63.3754,1452.39
63.5454,1686.79
63.7154,1838.6
63.8854,1578.06
64.0554,1412.16
64.2254,1335.63
64.3954,1344.02
64.5654,1379.07
64.7354,1375.38
64.9054,1363.8
65.0754,1306.29
65.2454,1276.41
65.4154,1348.11
65.5854,1383.16
65.7554,1369.94
65.9254,1325.33
66.0954,1439.89
66.2654,1440.4
66.4354,1316.85
66.6054,1330.02
66.7754,1268.43
66.9454,1301.06
67.1154,1234.29
67.2854,1274.23
67.4554,1273.42
67.6254,1333.68
67.7954,1303.73
67.9654,1298.06
68.1354,1348.17
68.3054,1427.09
68.4754,1425.39
68.6454,1333.24
68.8154,1343.08
68.9854,1286.82
69.1554,1299.44
69.3254,1330.79
69.4954,1318.92
69.6654,1299.55
69.8354,1285.92
69.9884,1314.88