Folder: herald_visualization/herald_visualization/Delia_Scripts/VF4_1to1_KS6Lgraphite

Note: readme.md
This package is designed for plotting the data in herald project.
mpr_to_csv is used for transforming raw biologic mpr files to human-readable csv files.

File: fitted-VF4_1to1_KS6Lgraphite-0min_milled-Quinn_mixed-20-70deg_40min.csv
2Theta,Intensity
20.0254,1375.02
20.1954,1350.06
20.3654,1349.79
20.5354,1313.39
20.7054,1290.58
20.8754,1262.18
21.0454,1224
21.2154,1168.87
21.3854,1169.16
21.5554,1118.29
21.7254,1151.53
21.8954,1142.27
22.0654,1083.1
22.2354,1026.32
22.4054,1046.53
22.5754,993.475
22.7454,1039.63
22.9154,1037.32
23.0854,1046
23.2554,1055
23.4254,1178.66
23.5954,1390.38
23.7654,1941.48
23.9354,2439.95
24.1054,1958.43
24.2754,1360.49
24.4454,1049.68
24.6154,963
24.7854,865.595
24.9554,831.778
25.1254,797.008
25.2954,793.373
25.4654,871.845
25.6354,1494.2
25.8054,4069.16
25.9754,1020.78
26.1454,829.796
26.3154,941.43
26.4854,1642.22
26.6554,958.333
26.8254,737.72
26.9954,679.303
27.1654,681.128
27.3354,653.6
27.5054,608.506
27.6754,596.377
27.8454,584.12
28.0154,592.24
28.1854,622.641
28.3554,562.949
28.5254,551.503
28.6954,565.101
28.8654,562.962
29.0354,550.093
29.2054,520.875
29.3754,516.12
29.5454,499.24
29.7154,526.773
29.8854,467.149
30.0554,484.436
30.2254,489.909
30.3954,440.896
30.5654,431.777
30.7354,432.641
30.9054,453.625
31.0754,436.009
31.2454,413.523
31.4154,439.526
31.5854,444.661
31.7554,444.104
31.9254,410.228
32.0954,434.569
32.2654,409.914
32.4354,418.096
32.6054,443.401
32.7754,431.824
32.9454,405.779
33.1154,428.631
33.2854,496.012
33.4554,632.996
33.6254,685.927
33.7954,445.097
33.9654,427.664
34.1354,411.634
34.3054,396.707
34.4754,414.187
34.6454,500.653
34.8154,432.537
34.9854,384.437
35.1554,346.944
35.3254,314.717
35.4954,328.081
35.6654,317.262
35.8354,335.838
36.0054,303.159
36.1754,280.327
36.3454,280.661
36.5154,285.82
36.6854,306.493
36.8554,297.733
37.0254,267.911
37.1954,295.757
37.3654,270.011
37.5354,313.903
37.7054,344.196
37.8754,342.824
38.0454,292.973
38.2154,297.513
38.3854,413.304
38.5554,457.751
38.7254,332.071
38.8954,289
39.0654,276.899
39.2354,278.197
39.4054,265.877
39.5754,264
39.7454,347.941
39.9154,619.607
40.0854,473.664
40.2554,468.441
40.4254,528.255
40.5954,464.693
40.7654,350.616
40.9354,307.925
41.1054,283.506
41.2754,267.044
41.4454,267.38
41.6154,223.12
41.7854,238.724
41.9554,241.808
42.1254,260.827
42.2954,345.019
42.4654,472.18
42.6354,438.132
42.8054,281.598
42.9754,253.239
43.1454,227.852
43.3154,238.063
43.4854,217.721
43.6554,193.398
43.8254,210.709
43.9954,210.379
44.1654,212.036
44.3354,218.593
44.5054,252.779
44.6754,222.092
44.8454,203.574
45.0154,211.754
45.1854,207.117
45.3554,199.478
45.5254,194.265
45.6954,191.509
45.8654,185.585
46.0354,189.548
46.2054,170.128
46.3754,171.345
46.5454,178.467
46.7154,189.141
46.8854,161.791
47.0554,189.751
47.2254,173.568
47.3954,181.989
47.5654,176.888
47.7354,199.764
47.9054,177.577
48.0754,192.677
48.2454,203.678
48.4154,231.645
48.5854,269.563
48.7554,365.402
48.9254,617.24
49.0954,789.485
49.2654,421.995
49.4354,301.849
49.6054,209.848
49.7754,200.241
49.9454,193.463
50.1154,186.211
50.2854,174.543
50.4554,175.614
50.6254,165.159
50.7954,160.596
50.9654,175.163
51.1354,164.906
51.3054,164.657
51.4754,138.44
51.6454,162.31
51.8154,177.14
51.9854,171.987
52.1554,176.864
52.3254,152.26
52.4954,183.562
52.6654,180.516
52.8354,260
53.0054,349.608
53.1754,356.795
53.3454,251.17
53.5154,186.837
53.6854,209.681
53.8554,238.401
54.0254,300.733
54.1954,356.397
54.3654,440.605
54.5354,434.457
54.7054,475.782
54.8754,505.873
55.0454,477.299
55.2154,406.564
55.3854,561.375
55.5554,460.322
55.7254,258.691
55.8954,230.689
56.0654,255.25
56.2354,263.27
56.4054,277.095
56.5754,216.672
56.7454,224.065
56.9154,343.253
57.0854,293.128
57.2554,211.737
57.4254,174.102
57.5954,145.209
57.7654,148.758
57.9354,147.784
58.1054,141.425
58.2754,129.297
58.4454,157.547
58.6154,145.137
58.7854,153.205
58.9554,181.756
59.1254,202.907
59.2954,197.5
59.4654,185.622
59.6354,160.502
59.8054,142.128
59.9754,137
60.1454,141.66
60.3154,131.112
60.4854,137.208
60.6554,128.514
60.8254,126.746
60.9954,169.127
61.1654,169.171
61.3354,160.03
61.5054,185.795
61.6754,192.525
61.8454,183.486
62.0154,189.623
62.1854,192.684
62.3554,189.159
62.5254,208.479
62.6954,195.305
62.8654,174.898
63.0354,144.433
63.2054,150.976
63.3754,131.429
63.5454,139.792
63.7154,167.53
63.8854,186.155
64.0554,279.017
64.2254,244.035
64.3954,171.224
64.5654,147.292
64.7354,120.745
64.9054,116.698
65.0754,125.758
65.2454,141.297
65.4154,131.446
65.5854,102.072
65.7554,121.506
65.9254,104.662
66.0954,140.472
66.2654,104.112
66.4354,110.852
66.6054,101
66.7754,99.1392
66.9454,117.925
67.1154,106.021
67.2854,110.362
67.4554,115.447
67.6254,125.076
67.7954,115.865
67.9654,127.063
68.1354,103.304
68.3054,125.628
68.4754,123.844
68.6454,108.45
68.8154,118.873
68.9854,111.893
69.1554,111.814
69.3254,130.857
69.4954,144.476
69.6654,145.577
69.8354,169.048
69.9884,161.038

File: fitted-VF4_1to1_KS6Lgraphite-100min_milled-Quinn_mixed-20-70deg_40min.csv
2Theta,Intensity
20.0254,3298.52
20.1954,3250.56
20.3654,3234.57
20.5354,3138.06
20.7054,3060.12
20.8754,2979.33
21.0454,3020.88
21.2154,2872.37
21.3854,2814.19
21.5554,2768.91
21.7254,2732.43
21.8954,2678.32
22.0654,2546.62
22.2354,2544.12
22.4054,2488.33
22.5754,2513.09
22.7454,2531.91
22.9154,2603.64
23.0854,2767.46
23.2554,3099.1
23.4254,3834.7
23.5954,5449.13
23.7654,7371.65
23.9354,7018.9
24.1054,5197.77
24.2754,3734.82
24.4454,2876.51
24.6154,2474.44
24.7854,2188.64
24.9554,2065.06
25.1254,1932.58
25.2954,1852.96
25.4654,1827.61
25.6354,1835.98
25.8054,1656.17
25.9754,1760.71
26.1454,1635.65
26.3154,1725.62
26.4854,1582.72
26.6554,1596.58
26.8254,1590.35
26.9954,1618.15
27.1654,1575.24
27.3354,1472.53
27.5054,1511.08
27.6754,1452.95
27.8454,1494.33
28.0154,1349.96
28.1854,1412.56
28.3554,1360.17
28.5254,1413.86
28.6954,1365.52
28.8654,1370.92
29.0354,1293.34
29.2054,1326.33
29.3754,1236.28
29.5454,1285.86
29.7154,1272.37
29.8854,1197.5
30.0554,1185.28
30.2254,1182.04
30.3954,1138.8
30.5654,1146.68
30.7354,1115.96
30.9054,1095.97
31.0754,1086.93
31.2454,1069.69
31.4154,1048.71
31.5854,1019.06
31.7554,988.713
31.9254,1051.57
32.0954,1049.47
32.2654,1051.6
32.4354,1099.87
32.6054,1047.16
32.7754,1164
32.9454,1219.14
33.1154,1297.38
33.2854,1478.21
33.4554,1470.67
33.6254,1307.77
33.7954,1215.83
33.9654,1126.8
34.1354,1074.39
34.3054,1097.37
34.4754,1041.63
34.6454,1027.55
34.8154,977.683
34.9854,967.148
35.1554,878.521
35.3254,882.164
35.4954,864.875
35.6654,828.984
35.8354,838.214
36.0054,742.072
36.1754,790.276
36.3454,741.98
36.5154,718.905
36.6854,786.822
36.8554,747.68
37.0254,736.41
37.1954,741.125
37.3654,713.607
37.5354,730.825
37.7054,746.964
37.8754,689.047
38.0454,744.122
38.2154,705.757
38.3854,676.771
38.5554,672.547
38.7254,717.275
38.8954,692.805
39.0654,730.519
39.2354,753.41
39.4054,796.283
39.5754,819.887
39.7454,877.424
39.9154,1004.64
40.0854,1182.96
40.2554,1345.09
40.4254,1247.22
40.5954,1168.47
40.7654,994.223
40.9354,868.862
41.1054,763.78
41.2754,733.429
41.4454,671.981
41.6154,672.679
41.7854,635.918
41.9554,666.946
42.1254,623.346
42.2954,667.443
42.4654,647.824
42.6354,619.153
42.8054,681.335
42.9754,633.527
43.1454,602.634
43.3154,583.31
43.4854,592.698
43.6554,594.365
43.8254,573.085
43.9954,533.077
44.1654,562.442
44.3354,530.93
44.5054,558.015
44.6754,549.254
44.8454,515.462
45.0154,557.538
45.1854,511.175
45.3554,477.956
45.5254,479.182
45.6954,536.824
45.8654,487.495
46.0354,497.384
46.2054,516.507
46.3754,522.178
46.5454,480.03
46.7154,435.018
46.8854,483.152
47.0554,498.285
47.2254,495.525
47.3954,510.32
47.5654,552.628
47.7354,584.483
47.9054,573.769
48.0754,637.507
48.2454,694.887
48.4154,845.742
48.5854,1082.54
48.7554,1206.41
48.9254,1315.08
49.0954,1110.57
49.2654,873.509
49.4354,772.177
49.6054,591.928
49.7754,541.95
49.9454,504.666
50.1154,440.829
50.2854,462.658
50.4554,438.558
50.6254,445.916
50.7954,426.796
50.9654,430.123
51.1354,410.177
51.3054,376.414
51.4754,412.172
51.6454,407.156
51.8154,398.368
51.9854,428.54
52.1554,401.248
52.3254,426.913
52.4954,437.649
52.6654,464.194
52.8354,465.976
53.0054,476.886
53.1754,523.78
53.3454,587.648
53.5154,641.315
53.6854,708.618
53.8554,937.02
54.0254,1116.57
54.1954,1253.27
54.3654,1229.97
54.5354,1099.82
54.7054,898.9
54.8754,807.509
55.0454,720.484
55.2154,693.872
55.3854,681.621
55.5554,711.128
55.7254,711.606
55.8954,737.976
56.0654,681.563
56.2354,619
56.4054,583.181
56.5754,546.224
56.7454,483.196
56.9154,464.957
57.0854,407.142
57.2554,422.211
57.4254,362.926
57.5954,370.795
57.7654,391.264
57.9354,394.022
58.1054,387.149
58.2754,374.647
58.4454,399.153
58.6154,432.513
58.7854,408.538
58.9554,418.834
59.1254,387.977
59.2954,365.142
59.4654,371.635
59.6354,382.872
59.8054,393.509
59.9754,387.098
60.1454,382.604
60.3154,376.243
60.4854,376.383
60.6554,402.973
60.8254,438.812
60.9954,483.313
61.1654,551.089
61.3354,526.006
61.5054,550.494
61.6754,513.017
61.8454,561.208
62.0154,561.526
62.1854,596.384
62.3554,494.537
62.5254,455.536
62.6954,394.603
62.8654,426.755
63.0354,425.407
63.2054,380.244
63.3754,336.257
63.5454,333.824
63.7154,313.53
63.8854,332.194
64.0554,285.179
64.2254,299.817
64.3954,284.265
64.5654,313.745
64.7354,315.893
64.9054,310.234
65.0754,316.227
65.2454,305.733
65.4154,303.268
65.5854,295.787
65.7554,262.589
65.9254,285.337
66.0954,279.717
66.2654,289.727
66.4354,275.704
66.6054,270.397
66.7754,277.877
66.9454,264.704
67.1154,253.134
67.2854,270.245
67.4554,283.003
67.6254,278.789
67.7954,269.73
67.9654,266.574
68.1354,291.955
68.3054,239.6
68.4754,284.082
68.6454,263.114
68.8154,282.168
68.9854,262.297
69.1554,279.202
69.3254,324.43
69.4954,348.445
69.6654,328.423
69.8354,359.437
69.9884,363.54

File: VF3_ref.csv
2Theta,Intensity
23.882,100
33.373,14.8
34.672,5.2
40.274,19.8
40.274,19.8
42.54,2.2
48.888,16.7
54.226,20.3
54.616,2.1
55.997,9.1
58.803,2.1
61.317,5.2
62.142,7.1
65.134,0.8
70.098,3.7

File: VF4_ref.csv
2Theta,Intensity
19.078,100
25.754,99.4
25.754,99.4
25.866,97.2
33.541,16.6
34.674,6.6
37.659,1
37.896,6
37.896,6
38.712,13.1
38.712,13.1
39.025,0.9
39.948,16.7
39.948,16.7
42.62,20.9
42.62,20.9
42.906,0.8
49.012,27.2
49.012,27.2
51.89,1.3
52.381,0.4
52.939,10.8
52.939,10.8
53.182,10.5
55.054,7.5
55.355,24
55.355,24
55.531,8.8
55.531,8.8
56.942,10.7
56.942,10.7
59.624,4.6
62.536,2.1
62.536,2.1
63.027,1.1
63.923,3.3
64.121,6.2
64.121,6.2
64.354,6.2
64.354,6.2
67.622,0.2
67.622,0.2
67.834,0.3
69.864,2.7
70.49,4.3