Folder: herald_visualization/herald_visualization/XRD Plotting Scripts (Riley)/Figures/(Fe,Co,Ni,Cu)S2

Note: readme.md
This package is designed for plotting the data in herald project.
mpr_to_csv is used for transforming raw biologic mpr files to human-readable csv files.

File: 250206_Run1_20-70deg_40min.csv
2Theta,Intensity
20.0084,4101.0
20.1755,4065.0
20.3426,3948.0
20.5097,3920.0
20.6768,3854.0
20.8439,3721.0
21.011,3662.0
21.1781,3595.0
21.3453,3523.0
21.5124,3501.0
21.6795,3480.0
21.8466,3336.0
22.0137,3332.0
22.1808,3269.0
22.3479,3138.0
22.515,3113.0
22.6822,3033.0
22.8493,2821.0
23.0164,3025.0
23.1835,2846.0
23.3506,2757.0
23.5177,2711.0
23.6848,2706.0
23.8519,2516.0
24.0191,2541.0
24.1862,2494.0
24.3533,2524.0
24.5204,2546.0
24.6875,2455.0
24.8546,2449.0
25.0217,2486.0
25.1888,2526.0
25.356,2491.0
25.5231,2483.0
25.6902,2467.0
25.8573,2383.0
26.0244,2353.0
26.1915,2454.0
26.3586,2463.0
26.5258,2395.0
26.6929,2391.0
26.86,2471.0
27.0271,2491.0
27.1942,2396.0
27.3613,2365.0
27.5284,2461.0
27.6955,2462.0
27.8627,2437.0
28.0298,2393.0
28.1969,2235.0
28.364,2252.0
28.5311,2281.0
28.6982,2343.0
28.8653,2308.0
29.0324,2401.0
29.1996,2568.0
29.3667,2578.0
29.5338,2444.0
29.7009,2362.0
29.868,2343.0
30.0351,2318.0
30.2022,2248.0
30.3693,2224.0
30.5365,2239.0
30.7036,2185.0
30.8707,2158.0
31.0378,2143.0
31.2049,2271.0
31.372,2315.0
31.5391,2377.0
31.7062,2644.0
31.8734,2637.0
32.0405,2527.0
32.2076,2442.0
32.3747,2341.0
32.5418,2254.0
32.7089,2391.0
32.876,2562.0
33.0431,2483.0
33.2103,2187.0
33.3774,2053.0
33.5445,2045.0
33.7116,2127.0
33.8787,2018.0
34.0458,2052.0
34.2129,2025.0
34.38,1991.0
34.5472,1945.0
34.7143,1958.0
34.8814,1902.0
35.0485,1926.0
35.2156,1975.0
35.3827,1938.0
35.5498,1928.0
35.7169,1912.0
35.8841,1899.0
36.0512,1908.0
36.2183,1919.0
36.3854,1914.0
36.5525,1839.0
36.7196,1872.0
36.8867,1970.0
37.0538,1851.0
37.221,1907.0
37.3881,1920.0
37.5552,1800.0
37.7223,1905.0
37.8894,1890.0
38.0565,1938.0
38.2236,1875.0
38.3908,1926.0
38.5579,1830.0
38.725,1868.0
38.8921,1886.0
39.0592,1937.0
39.2263,1844.0
39.3934,1876.0
39.5605,1908.0
39.7277,1891.0
39.8948,1925.0
40.0619,1849.0
40.229,1888.0
40.3961,1906.0
40.5632,1896.0
40.7303,1923.0
40.8974,1854.0
41.0646,1798.0
41.2317,1840.0
41.3988,1872.0
41.5659,1831.0
41.733,1842.0
41.9001,1954.0
42.0672,1852.0
42.2343,1863.0
42.4015,1965.0
42.5686,1958.0
42.7357,1843.0
42.9028,1894.0
43.0699,1967.0
43.237,2050.0
43.4041,1994.0
43.5712,1945.0
43.7384,2070.0
43.9055,2075.0
44.0726,1956.0
44.2397,1964.0
44.4068,2022.0
44.5739,2007.0
44.741,2037.0
44.9081,1981.0
45.0753,1934.0
45.2424,1918.0
45.4095,1920.0
45.5766,1937.0
45.7437,2051.0
45.9108,2017.0
46.0779,2018.0
46.245,1984.0
46.4122,1996.0
46.5793,2002.0
46.7464,2101.0
46.9135,2141.0
47.0806,2157.0
47.2477,2085.0
47.4148,2222.0
47.5819,2284.0
47.7491,2496.0
47.9162,2759.0
48.0833,2727.0
48.2504,2420.0
48.4175,2294.0
48.5846,2091.0
48.7517,2242.0
48.9189,2162.0
49.086,2140.0
49.2531,2123.0
49.4202,2005.0
49.5873,1974.0
49.7544,1964.0
49.9215,2092.0
50.0886,2067.0
50.2558,2013.0
50.4229,2044.0
50.59,1981.0
50.7571,2074.0
50.9242,2085.0
51.0913,2066.0
51.2584,2064.0
51.4255,2072.0
51.5927,2169.0
51.7598,2096.0
51.9269,2225.0
52.094,2190.0
52.2611,2191.0
52.4282,2329.0
52.5953,2460.0
52.7624,2550.0
52.9296,2488.0
53.0967,2389.0
53.2638,2402.0
53.4309,2371.0
53.598,2188.0
53.7651,2254.0
53.9322,2171.0
54.0993,2237.0
54.2665,2235.0
54.4336,2296.0
54.6007,2165.0
54.7678,2207.0
54.9349,2096.0
55.102,2193.0
55.2691,2182.0
55.4362,2229.0
55.6034,2062.0
55.7705,2256.0
55.9376,2216.0
56.1047,2176.0
56.2718,2154.0
56.4389,2284.0
56.606,2285.0
56.7731,2177.0
56.9403,2192.0
57.1074,2235.0
57.2745,2236.0
57.4416,2357.0
57.6087,2378.0
57.7758,2281.0
57.9429,2282.0
58.11,2226.0
58.2772,2218.0
58.4443,2380.0
58.6114,2352.0
58.7785,2498.0
58.9456,2406.0
59.1127,2431.0
59.2798,2520.0
59.447,2759.0
59.6141,2533.0
59.7812,2463.0
59.9483,2371.0
60.1154,2247.0
60.2825,2249.0
60.4496,2371.0
60.6167,2204.0
60.7839,2279.0
60.951,2166.0
61.1181,2311.0
61.2852,2202.0
61.4523,2196.0
61.6194,2320.0
61.7865,2248.0
61.9536,2232.0
62.1208,2217.0
62.2879,2216.0
62.455,2322.0
62.6221,2237.0
62.7892,2318.0
62.9563,2284.0
63.1234,2332.0
63.2905,2269.0
63.4577,2297.0
63.6248,2363.0
63.7919,2296.0
63.959,2373.0
64.1261,2226.0
64.2932,2217.0
64.4603,2418.0
64.6274,2416.0
64.7946,2283.0
64.9617,2329.0
65.1288,2329.0
65.2959,2317.0
65.463,2244.0
65.6301,2342.0
65.7972,2259.0
65.9643,2272.0
66.1315,2358.0
66.2986,2320.0
66.4657,2433.0
66.6328,2311.0
66.7999,2266.0
66.967,2392.0
67.1341,2283.0
67.3012,2362.0
67.4684,2371.0
67.6355,2352.0
67.8026,2357.0
67.9697,2375.0
68.1368,2370.0
68.3039,2341.0
68.471,2287.0
68.6381,2396.0
68.8053,2379.0
68.9724,2412.0
69.1395,2522.0
69.3066,2410.0
69.4737,2551.0
69.6408,2475.0
69.8079,2435.0
69.975,2486.0
69.9918,2518.0

File: CuS.csv
2Theta (degrees),Intensity
10.8603,10.154
21.8198,1.98724
27.2251,2.03107
27.3814,16.9867
27.7807,3.5457
27.9341,24.7813
29.3893,17.4609
29.5351,56.1009
31.9059,73.8957
32.0413,100.0
32.9859,80.1966
35.1574,0.743815
35.2817,0.150515
38.9883,10.1829
39.1021,6.85816
43.2793,0.86104
43.3838,7.5727
44.4854,8.58717
47.9476,5.39259
48.044,16.5766
48.2104,74.617
48.4983,40.9297
48.5536,3.53837
49.5724,0.167206
49.8544,0.530829
51.2372,7.25863
52.9404,12.1444
53.0302,35.5683
53.5049,2.21157
53.772,0.432597
56.1608,1.80497
56.3268,2.98692
56.4691,3.82113
56.4796,0.0507007
56.5054,0.596718
56.8125,0.783425
57.3876,3.75017
57.7274,4.08456
58.229,3.01417
58.3133,2.75444
58.8979,4.26581
59.2322,23.1765
59.6553,44.5063
59.9043,25.2912
60.973,0.0496466
61.3005,0.295637
63.4492,1.41498
63.5816,0.00806678
63.8036,1.42904
63.8835,1.83348
63.9014,4.30383
66.6923,1.35283
67.0043,0.417966
67.6771,6.64754
67.9094,4.35626
69.1933,0.999672
69.6705,7.10429
69.7469,8.48967
70.2779,3.95574
70.5823,3.10245
72.3197,1.74962
74.3182,6.85579
74.6159,8.34621
75.8517,0.0469669
75.9256,0.503578
77.0994,0.024506
77.3199,1.19502
77.3624,0.140611
77.5828,2.85264
77.5917,0.0555288
77.6872,0.788765
77.9496,1.07955
78.15,0.522463
78.3697,2.88105
78.7355,2.77497
78.8035,0.0586845
79.0958,2.21233
79.4577,10.164
79.6764,3.18696
80.0406,6.02823
81.2793,0.5347
81.4968,0.0414213
81.8592,0.0100725
82.3864,0.227101
82.4588,1.01067
82.8424,1.20733
82.9706,2.86124
83.6086,2.72014
83.7367,0.526047
83.825,0.00211319
84.0251,1.27117
84.1855,0.590804
86.4416,0.0562462
86.6571,1.13427
87.0162,0.795283
88.7616,1.39476
88.9767,1.04279
89.1367,0.811354
89.3357,3.21347
89.4074,9.33963
89.4235,6.97588
89.7791,1.48022
89.8313,4.17276
89.9942,4.11426

File: FeS2.csv
2Theta (degrees),Intensity
28.6496,37.7815
33.2007,93.9113
37.2552,53.6571
40.9627,44.8609
47.661,50.4334
50.75,0.670582
56.5586,100.0
59.3179,15.9211
62.0005,16.5533
64.6179,22.1474
69.6941,0.0344848
72.1684,0.807926
74.6086,0.465433
77.0206,11.1519
79.4094,13.7913
81.7797,9.11743
84.1359,4.51534
88.8226,13.5736

File: S.csv
2Theta (degrees),Intensity
11.2038,8.12543
15.0714,16.8944
17.9498,2.33364
21.3398,13.5106
22.5166,100.0
25.3895,37.2007
25.9815,23.8613
27.156,11.2053
27.9208,19.223
28.6836,1.17083
30.7857,18.5064
32.4544,2.93584
33.2813,2.93467
34.0571,3.58321
35.1065,7.30493
36.0288,0.0024226
36.36,1.5421
36.8457,0.128148
38.6756,6.74374
38.945,0.404374
39.6844,0.416601
39.9103,1.77667
41.3361,3.70135
41.9005,8.435
42.3196,0.0198688
42.8121,0.0222356
43.4684,0.293941
43.6512,0.485055
44.0901,1.89341
44.4984,4.73149
45.3074,4.32762
45.9668,1.97784
46.4566,9.11594
46.7084,3.41585
47.1334,0.460859
48.0223,1.0546
48.5324,1.48905
48.9271,2.68492
49.0556,5.58089
49.9927,0.0580781
50.0926,16.9518
50.6699,9.97915
51.9256,2.50486
52.1458,5.797
52.865,0.0237885
52.9123,0.00580472
53.4344,0.0997368
54.0012,2.41922
54.3257,0.232325
54.5289,0.0568309
54.7739,1.07891
55.0647,0.394358
55.3727,6.19625
55.9282,0.467583
56.0086,0.0140962
56.1319,0.614672
56.3421,0.445544
56.5345,2.62782
57.7233,2.37457
58.1034,0.0855683
58.429,0.0408865
58.5545,0.253064
58.7392,2.0756
59.3099,0.422345
59.68,0.267704
60.2084,0.018232
60.4316,2.76514
60.7315,0.351839
61.2692,3.11746
61.5626,0.140838
61.7744,0.642955
62.2739,0.354603
63.2748,1.42641
63.3181,1.02161
63.8596,0.167386
64.1287,0.696377
64.2919,0.038602
64.5466,0.521623
65.156,0.0868613
65.4065,0.0924908
65.5161,0.795051
65.6197,0.57408
65.7037,0.14067
66.4905,0.0879093
66.6177,0.300264
66.7123,0.348753
67.115,0.313499
67.2081,1.11279
67.4333,1.20325
67.9042,0.849746
68.0621,1.76967
69.01,0.266669
69.0425,0.315118
69.4399,0.960513
69.649,0.186398
69.8109,0.886241
70.0166,1.14486
70.2362,0.955285
70.2608,0.905811
70.4182,0.838074
70.7924,3.40522
70.895,1.35364
70.9722,0.0200713
71.4844,0.971938
71.7437,0.0590928
71.8292,0.0725012
72.018,0.274998
72.2169,0.028896
72.3397,1.00572
73.0466,0.687973
73.3987,2.24484
73.7165,0.137095
73.9557,0.0259188
74.3333,0.575353
74.7892,0.00374895
75.0006,0.0120612
75.4735,0.718601
75.7528,1.42142
75.9945,0.0408793
76.1512,0.00259796
76.415,0.0338277
76.6137,0.450716
76.9357,2.38624
77.2478,0.0908295
77.752,0.415498
78.247,0.016083
78.2855,0.171172
78.4816,0.539942
78.8328,0.067425
79.4113,0.0849565
79.4923,0.086631
79.972,0.427473
80.3042,1.37332
80.521,0.170899
80.7423,0.139575
80.8974,0.260056
81.168,0.623627
81.6317,1.23951
81.7864,0.169794
81.9484,0.476408
82.0184,0.0145038
82.083,0.341404
82.4886,0.00992157
82.8012,1.00676
82.9469,0.389682
83.1484,0.269158
83.242,0.187738
83.4046,0.07357
83.5893,0.222572
83.7898,0.550044
83.8672,0.133716
84.428,0.0642662
84.7375,0.0222971
84.8525,0.260841
85.2879,0.387876
85.3088,0.00768364
85.5263,0.0555625
86.043,0.93953
86.0893,0.0659501
86.1398,0.169799
86.2592,0.0570172
86.5751,0.275148
87.4414,1.67525
87.518,0.0802177
87.6244,0.235962
88.2263,0.706558
88.2883,0.413988
88.4589,0.338333
88.5308,0.0725802
88.8978,2.39677
89.0826,0.0938639
89.4432,0.122638
89.5714,0.207025
89.7245,0.243954
89.8055,0.350062
89.9542,0.883446
89.9918,0.129046