Folder: herald_visualization/herald_visualization/XRD Plotting Scripts (Riley)/Figures/CrF3

Note: readme.md
This package is designed for plotting the data in herald project.
mpr_to_csv is used for transforming raw biologic mpr files to human-readable csv files.

File: CrF3.csv
2Theta (degrees),Intensity
24.8512,100.0
34.2177,24.5226
36.6111,6.01689
40.6666,0.0419631
42.0697,27.243
44.7566,7.06284
50.9787,15.5852
55.8601,30.3058
57.7964,1.05841
59.1491,11.1306
59.6736,4.28135
64.3857,8.66928
65.9141,13.08
68.1647,0.547118
72.0837,4.67056
74.7257,3.2262
74.968,2.96172
77.8221,0.328961
77.8303,0.988988
80.4087,0.223847
81.3478,1.67815
82.0486,0.503244
83.2112,6.09688
83.6657,3.84591
86.2076,0.995593
87.8386,1.85534
88.0483,1.94925