Folder: herald_visualization/herald_visualization/XRD Plotting Scripts (Riley)/Figures/Fe0p56Mn0p44F3_SuperP

Note: readme.md
This package is designed for plotting the data in herald project.
mpr_to_csv is used for transforming raw biologic mpr files to human-readable csv files.

File: Iron Fluoride.xy
2Theta Intensity
20.0084	6936.00
20.1784	6893.00
20.3484	6851.00
20.5184	6810.00
20.6884	6770.00
20.8584	6730.00
21.0284	6692.00
21.1984	6656.00
21.3684	6621.00
21.5384	6587.00
21.7084	6555.00
21.8784	6526.00
22.0484	6501.00
22.2184	6480.00
22.3884	6466.00
22.5584	6464.00
22.7284	6483.00
22.8984	6556.00
23.0684	6816.00
23.2384	7576.00
23.4084	9012.00
23.5784	10091.00
23.7484	9306.00
23.9184	7874.00
24.0884	6894.00
24.2584	6429.00
24.4284	6231.00
24.5984	6127.00
24.7684	6057.00
24.9384	6002.00
25.1084	5955.00
25.2784	5915.00
25.4484	5878.00
25.6184	5845.00
25.7884	5813.00
25.9584	5784.00
26.1284	5756.00
26.2984	5729.00
26.4684	5703.00
26.6384	5678.00
26.8084	5654.00
26.9784	5631.00
27.1484	5608.00
27.3184	5586.00
27.4884	5564.00
27.6584	5543.00
27.8284	5523.00
27.9984	5503.00
28.1684	5483.00
28.3384	5464.00
28.5084	5446.00
28.6784	5427.00
28.8484	5410.00
29.0184	5392.00
29.1884	5376.00
29.3584	5359.00
29.5284	5343.00
29.6984	5322.00
29.8684	5307.00
30.0384	5293.00
30.2084	5279.00
30.3784	5265.00
30.5484	5251.00
30.7184	5238.00
30.8884	5226.00
31.0584	5214.00
31.2284	5202.00
31.3984	5191.00
31.5684	5181.00
31.7384	5172.00
31.9084	5164.00
32.0784	5157.00
32.2484	5154.00
32.4184	5157.00
32.5884	5180.00
32.7584	5248.00
32.9284	5379.00
33.0984	5529.00
33.2684	5553.00
33.4384	5438.00
33.6084	5311.00
33.7784	5253.00
33.9484	5269.00
34.1184	5305.00
34.2884	5275.00
34.4584	5194.00
34.6284	5115.00
34.7984	5061.00
34.9684	5029.00
35.1384	5010.00
35.3084	4997.00
35.4784	4987.00
35.6484	4978.00
35.8184	4971.00
35.9884	4964.00
36.1584	4958.00
36.3284	4952.00
36.4984	4946.00
36.6684	4941.00
36.8384	4937.00
37.0084	4932.00
37.1784	4928.00
37.3484	4925.00
37.5184	4921.00
37.6884	4918.00
37.8584	4915.00
38.0284	4913.00
38.1984	4911.00
38.3684	4910.00
38.5384	4910.00
38.7084	4911.00
38.8784	4915.00
39.0484	4925.00
39.2184	4950.00
39.3884	5006.00
39.5584	5100.00
39.7284	5210.00
39.8984	5254.00
40.0684	5199.00
40.2384	5102.00
40.4084	5015.00
40.5784	4956.00
40.7484	4923.00
40.9184	4905.00
41.0884	4897.00
41.2584	4894.00
41.4284	4895.00
41.5984	4903.00
41.7684	4915.00
41.9384	4927.00
42.1084	4928.00
42.2784	4916.00
42.4484	4902.00
42.6184	4890.00
42.7884	4882.00
42.9584	4878.00
43.1284	4876.00
43.2984	4875.00
43.4684	4874.00
43.6384	4874.00
43.8084	4874.00
43.9784	4874.00
44.1484	4874.00
44.3184	4875.00
44.4884	4875.00
44.6584	4876.00
44.8284	4877.00
44.9984	4878.00
45.1684	4879.00
45.3384	4880.00
45.5084	4881.00
45.6784	4883.00
45.8484	4884.00
46.0184	4886.00
46.1884	4888.00
46.3584	4890.00
46.5284	4892.00
46.6984	4895.00
46.8684	4899.00
47.0384	4904.00
47.2084	4910.00
47.3784	4920.00
47.5484	4938.00
47.7184	4972.00
47.8884	5037.00
48.0584	5142.00
48.2284	5276.00
48.3984	5386.00
48.5684	5396.00
48.7384	5314.00
48.9084	5200.00
49.0784	5096.00
49.2484	5021.00
49.4184	4974.00
49.5884	4947.00
49.7584	4933.00
49.9284	4925.00
50.0984	4920.00
50.2684	4917.00
50.4384	4915.00
50.6084	4914.00
50.7784	4913.00
50.9484	4912.00
51.1184	4912.00
51.2884	4912.00
51.4584	4913.00
51.6284	4913.00
51.7984	4914.00
51.9684	4916.00
52.1384	4918.00
52.3084	4921.00
52.4784	4925.00
52.6484	4930.00
52.8184	4939.00
52.9884	4956.00
53.1584	4988.00
53.3284	5045.00
53.4984	5135.00
53.6684	5256.00
53.8384	5377.00
54.0084	5436.00
54.1784	5406.00
54.3484	5322.00
54.5184	5233.00
54.6884	5171.00
54.8584	5150.00
55.0284	5166.00
55.1984	5195.00
55.3684	5199.00
55.5384	5164.00
55.7084	5107.00
55.8784	5047.00
56.0484	4996.00
56.2184	4958.00
56.3884	4932.00
56.5584	4915.00
56.7284	4904.00
56.8984	4896.00
57.0684	4891.00
57.2384	4886.00
57.4084	4883.00
57.5784	4880.00
57.7484	4878.00
57.9184	4878.00
58.0884	4880.00
58.2584	4884.00
58.4284	4892.00
58.5984	4902.00
58.7684	4909.00
58.9384	4909.00
59.1084	4901.00
59.2784	4891.00
59.4484	4881.00
59.6184	4873.00
59.7884	4872.00
59.9584	4877.00
60.1284	4892.00
60.2984	4916.00
60.4684	4947.00
60.6384	4978.00
60.8084	5000.00
60.9784	5011.00
61.1484	5014.00
61.3184	5004.00
61.4884	4979.00
61.6584	4944.00
61.8284	4908.00
61.9984	4875.00
62.1684	4849.00
62.3384	4829.00
62.5084	4814.00
62.6784	4804.00
62.8484	4796.00
63.0184	4790.00
63.1884	4786.00
63.3584	4782.00
63.5284	4778.00
63.6984	4776.00
63.8684	4774.00
64.0384	4774.00
64.2084	4774.00
64.3784	4775.00
64.5484	4774.00
64.7184	4772.00
64.8884	4767.00
65.0584	4761.00
65.2284	4756.00
65.3984	4751.00
65.5684	4747.00
65.7384	4744.00
65.9084	4741.00
66.0784	4739.00
66.2484	4737.00
66.4184	4735.00
66.5884	4734.00
66.7584	4733.00
66.9284	4732.00
67.0984	4731.00
67.2684	4731.00
67.4384	4731.00
67.6084	4731.00
67.7784	4731.00
67.9484	4732.00
68.1184	4733.00
68.2884	4734.00
68.4584	4736.00
68.6284	4740.00
68.7984	4745.00
68.9684	4752.00
69.1384	4763.00
69.3084	4778.00
69.4784	4796.00
69.6484	4815.00
69.8184	4832.00
69.9884	4840.00