Folder: herald_visualization/herald_visualization/XRD Plotting Scripts (Riley)/Figures/Li2FeS2

Note: readme.md
This package is designed for plotting the data in herald project.
mpr_to_csv is used for transforming raw biologic mpr files to human-readable csv files.

File: 250213_Li2FeS2_100min_20-70deg.csv
2Theta,Intensity
20.0084,4714.0
20.1755,4786.0
20.3426,4638.0
20.5097,4622.0
20.6768,4529.0
20.8439,4521.0
21.011,4308.0
21.1781,4260.0
21.3453,4276.0
21.5124,4138.0
21.6795,4002.0
21.8466,3988.0
22.0137,3893.0
22.1808,3866.0
22.3479,3829.0
22.515,3588.0
22.6822,3578.0
22.8493,3711.0
23.0164,3479.0
23.1835,3489.0
23.3506,3391.0
23.5177,3482.0
23.6848,3217.0
23.8519,3293.0
24.0191,3199.0
24.1862,3208.0
24.3533,3211.0
24.5204,3176.0
24.6875,3159.0
24.8546,3155.0
25.0217,3046.0
25.1888,3025.0
25.356,3054.0
25.5231,3026.0
25.6902,3064.0
25.8573,3021.0
26.0244,3029.0
26.1915,3036.0
26.3586,3013.0
26.5258,3386.0
26.6929,4186.0
26.86,3795.0
27.0271,3020.0
27.1942,2905.0
27.3613,2852.0
27.5284,2814.0
27.6955,2721.0
27.8627,2633.0
28.0298,2666.0
28.1969,2582.0
28.364,2638.0
28.5311,2612.0
28.6982,2631.0
28.8653,2650.0
29.0324,2514.0
29.1996,2514.0
29.3667,2496.0
29.5338,2489.0
29.7009,2417.0
29.868,2455.0
30.0351,2416.0
30.2022,2502.0
30.3693,2325.0
30.5365,2447.0
30.7036,2369.0
30.8707,2536.0
31.0378,2712.0
31.2049,2488.0
31.372,2301.0
31.5391,2248.0
31.7062,2281.0
31.8734,2303.0
32.0405,2206.0
32.2076,2239.0
32.3747,2164.0
32.5418,2194.0
32.7089,2061.0
32.876,2205.0
33.0431,2227.0
33.2103,2117.0
33.3774,2087.0
33.5445,2138.0
33.7116,2086.0
33.8787,2020.0
34.0458,2118.0
34.2129,2049.0
34.38,2130.0
34.5472,1983.0
34.7143,2029.0
34.8814,1935.0
35.0485,2059.0
35.2156,2002.0
35.3827,2069.0
35.5498,1983.0
35.7169,2061.0
35.8841,1986.0
36.0512,2000.0
36.2183,1880.0
36.3854,1944.0
36.5525,1950.0
36.7196,2049.0
36.8867,1942.0
37.0538,1959.0
37.221,1908.0
37.3881,1934.0
37.5552,1962.0
37.7223,1936.0
37.8894,1915.0
38.0565,1861.0
38.2236,1973.0
38.3908,1928.0
38.5579,1848.0
38.725,1834.0
38.8921,1821.0
39.0592,1810.0
39.2263,1945.0
39.3934,1876.0
39.5605,1913.0
39.7277,1893.0
39.8948,1882.0
40.0619,1897.0
40.229,1810.0
40.3961,1865.0
40.5632,1815.0
40.7303,1811.0
40.8974,1810.0
41.0646,1849.0
41.2317,1791.0
41.3988,1810.0
41.5659,1850.0
41.733,1800.0
41.9001,1812.0
42.0672,1918.0
42.2343,1791.0
42.4015,1816.0
42.5686,1902.0
42.7357,1798.0
42.9028,1887.0
43.0699,1935.0
43.237,1911.0
43.4041,1957.0
43.5712,1928.0
43.7384,1892.0
43.9055,1966.0
44.0726,2240.0
44.2397,3228.0
44.4068,7215.0
44.5739,4829.0
44.741,2584.0
44.9081,2083.0
45.0753,1867.0
45.2424,1780.0
45.4095,1782.0
45.5766,1740.0
45.7437,1758.0
45.9108,1747.0
46.0779,1745.0
46.245,1749.0
46.4122,1707.0
46.5793,1693.0
46.7464,1714.0
46.9135,1647.0
47.0806,1719.0
47.2477,1687.0
47.4148,1763.0
47.5819,1746.0
47.7491,1720.0
47.9162,1717.0
48.0833,1703.0
48.2504,1770.0
48.4175,1702.0
48.5846,1635.0
48.7517,1664.0
48.9189,1763.0
49.086,1678.0
49.2531,1701.0
49.4202,1686.0
49.5873,1690.0
49.7544,1677.0
49.9215,1740.0
50.0886,1688.0
50.2558,1701.0
50.4229,1723.0
50.59,1615.0
50.7571,1635.0
50.9242,1716.0
51.0913,1635.0
51.2584,1641.0
51.4255,1728.0
51.5927,1581.0
51.7598,1681.0
51.9269,1700.0
52.094,1754.0
52.2611,1674.0
52.4282,1737.0
52.5953,1737.0
52.7624,1976.0
52.9296,2078.0
53.0967,1825.0
53.2638,1801.0
53.4309,1682.0
53.598,1713.0
53.7651,1675.0
53.9322,1637.0
54.0993,1655.0
54.2665,1688.0
54.4336,1648.0
54.6007,1663.0
54.7678,1693.0
54.9349,1578.0
55.102,1642.0
55.2691,1716.0
55.4362,1721.0
55.6034,1689.0
55.7705,1714.0
55.9376,1677.0
56.1047,1645.0
56.2718,1714.0
56.4389,1707.0
56.606,1714.0
56.7731,1749.0
56.9403,1658.0
57.1074,1688.0
57.2745,1599.0
57.4416,1732.0
57.6087,1614.0
57.7758,1726.0
57.9429,1597.0
58.11,1651.0
58.2772,1628.0
58.4443,1678.0
58.6114,1588.0
58.7785,1614.0
58.9456,1643.0
59.1127,1626.0
59.2798,1654.0
59.447,1666.0
59.6141,1657.0
59.7812,1576.0
59.9483,1579.0
60.1154,1600.0
60.2825,1661.0
60.4496,1593.0
60.6167,1598.0
60.7839,1588.0
60.951,1603.0
61.1181,1589.0
61.2852,1622.0
61.4523,1629.0
61.6194,1643.0
61.7865,1643.0
61.9536,1673.0
62.1208,1603.0
62.2879,1638.0
62.455,1624.0
62.6221,1671.0
62.7892,1600.0
62.9563,1604.0
63.1234,1635.0
63.2905,1750.0
63.4577,1639.0
63.6248,1673.0
63.7919,1663.0
63.959,1703.0
64.1261,1611.0
64.2932,1704.0
64.4603,1744.0
64.6274,1891.0
64.7946,2093.0
64.9617,2051.0
65.1288,1818.0
65.2959,1697.0
65.463,1751.0
65.6301,1647.0
65.7972,1698.0
65.9643,1597.0
66.1315,1550.0
66.2986,1615.0
66.4657,1636.0
66.6328,1620.0
66.7999,1588.0
66.967,1690.0
67.1341,1637.0
67.3012,1613.0
67.4684,1610.0
67.6355,1573.0
67.8026,1623.0
67.9697,1595.0
68.1368,1591.0
68.3039,1576.0
68.471,1579.0
68.6381,1643.0
68.8053,1595.0
68.9724,1631.0
69.1395,1524.0
69.3066,1638.0
69.4737,1628.0
69.6408,1608.0
69.8079,1624.0
69.975,1629.0
69.9918,1634.0

File: 250213_Li2FeS2_100min_20-70deg_no_background.xy
2Theta Intensity
20.0084	250.00
20.1784	368.00
20.3484	301.00
20.5184	393.00
20.6884	282.00
20.8584	371.00
21.0284	228.00
21.1984	311.00
21.3684	237.00
21.5384	216.00
21.7084	255.00
21.8784	291.00
22.0484	311.00
22.2184	240.00
22.3884	101.00
22.5584	247.00
22.7284	316.00
22.8984	278.00
23.0684	232.00
23.2384	207.00
23.4084	183.00
23.5784	206.00
23.7484	263.00
23.9184	278.00
24.0884	218.00
24.2584	184.00
24.4284	173.00
24.5984	121.00
24.7684	147.00
24.9384	207.00
25.1084	177.00
25.2784	84.00
25.4484	258.00
25.6184	237.00
25.7884	192.00
25.9584	202.00
26.1284	181.00
26.2984	383.00
26.4684	580.00
26.6384	1233.00
26.8084	1423.00
26.9784	530.00
27.1484	315.00
27.3184	219.00
27.4884	381.00
27.6584	203.00
27.8284	247.00
27.9984	289.00
28.1684	236.00
28.3384	253.00
28.5084	238.00
28.6784	353.00
28.8484	212.00
29.0184	168.00
29.1884	256.00
29.3584	217.00
29.5284	252.00
29.6984	182.00
29.8684	225.00
30.0384	201.00
30.2084	255.00
30.3784	181.00
30.5484	248.00
30.7184	311.00
30.8884	477.00
31.0584	562.00
31.2284	282.00
31.3984	230.00
31.5684	171.00
31.7384	232.00
31.9084	247.00
32.0784	270.00
32.2484	221.00
32.4184	165.00
32.5884	250.00
32.7584	241.00
32.9284	201.00
33.0984	236.00
33.2684	238.00
33.4384	330.00
33.6084	314.00
33.7784	263.00
33.9484	262.00
34.1184	317.00
34.2884	298.00
34.4584	252.00
34.6284	337.00
34.7984	357.00
34.9684	292.00
35.1384	255.00
35.3084	257.00
35.4784	365.00
35.6484	299.00
35.8184	293.00
35.9884	336.00
36.1584	283.00
36.3284	320.00
36.4984	286.00
36.6684	281.00
36.8384	279.00
37.0084	257.00
37.1784	218.00
37.3484	239.00
37.5184	268.00
37.6884	348.00
37.8584	311.00
38.0284	271.00
38.1984	232.00
38.3684	305.00
38.5384	213.00
38.7084	185.00
38.8784	317.00
39.0484	294.00
39.2184	289.00
39.3884	298.00
39.5584	302.00
39.7284	295.00
39.8984	289.00
40.0684	307.00
40.2384	277.00
40.4084	279.00
40.5784	360.00
40.7484	236.00
40.9184	265.00
41.0884	214.00
41.2584	225.00
41.4284	254.00
41.5984	262.00
41.7684	262.00
41.9384	263.00
42.1084	327.00
42.2784	295.00
42.4484	318.00
42.6184	373.00
42.7884	315.00
42.9584	360.00
43.1284	377.00
43.2984	338.00
43.4684	423.00
43.6384	364.00
43.8084	416.00
43.9784	559.00
44.1484	1047.00
44.3184	3622.00
44.4884	4991.00
44.6584	1691.00
44.8284	776.00
44.9984	427.00
45.1684	361.00
45.3384	310.00
45.5084	322.00
45.6784	289.00
45.8484	290.00
46.0184	332.00
46.1884	258.00
46.3584	294.00
46.5284	168.00
46.6984	202.00
46.8684	278.00
47.0384	267.00
47.2084	252.00
47.3784	274.00
47.5484	280.00
47.7184	268.00
47.8884	302.00
48.0584	282.00
48.2284	314.00
48.3984	308.00
48.5684	255.00
48.7384	297.00
48.9084	323.00
49.0784	264.00
49.2484	294.00
49.4184	273.00
49.5884	276.00
49.7584	262.00
49.9284	325.00
50.0984	257.00
50.2684	286.00
50.4384	329.00
50.6084	360.00
50.7784	314.00
50.9484	317.00
51.1184	298.00
51.2884	247.00
51.4584	253.00
51.6284	351.00
51.7984	260.00
51.9684	278.00
52.1384	323.00
52.3084	303.00
52.4784	363.00
52.6484	445.00
52.8184	576.00
52.9884	607.00
53.1584	461.00
53.3284	309.00
53.4984	369.00
53.6684	350.00
53.8384	281.00
54.0084	290.00
54.1784	300.00
54.3484	280.00
54.5184	258.00
54.6884	265.00
54.8584	249.00
55.0284	297.00
55.1984	291.00
55.3684	276.00
55.5384	379.00
55.7084	314.00
55.8784	368.00
56.0484	280.00
56.2184	225.00
56.3884	242.00
56.5584	339.00
56.7284	215.00
56.8984	243.00
57.0684	289.00
57.2384	312.00
57.4084	312.00
57.5784	204.00
57.7484	230.00
57.9184	248.00
58.0884	299.00
58.2584	245.00
58.4284	193.00
58.5984	279.00
58.7684	300.00
58.9384	272.00
59.1084	249.00
59.2784	290.00
59.4484	301.00
59.6184	301.00
59.7884	249.00
59.9584	212.00
60.1284	288.00
60.2984	274.00
60.4684	292.00
60.6384	253.00
60.8084	240.00
60.9784	218.00
61.1484	280.00
61.3184	232.00
61.4884	248.00
61.6584	275.00
61.8284	241.00
61.9984	274.00
62.1684	212.00
62.3384	210.00
62.5084	312.00
62.6784	267.00
62.8484	252.00
63.0184	240.00
63.1884	189.00
63.3584	247.00
63.5284	264.00
63.6984	252.00
63.8684	294.00
64.0384	276.00
64.2084	203.00
64.3784	374.00
64.5484	487.00
64.7184	692.00
64.8884	727.00
65.0584	473.00
65.2284	385.00
65.3984	309.00
65.5684	315.00
65.7384	214.00
65.9084	249.00
66.0784	275.00
66.2484	315.00
66.4184	204.00
66.5884	273.00
66.7584	187.00
66.9284	241.00
67.0984	232.00
67.2684	241.00
67.4384	174.00
67.6084	278.00
67.7784	200.00
67.9484	210.00
68.1184	249.00
68.2884	185.00
68.4584	234.00
68.6284	249.00
68.7984	226.00
68.9684	259.00
69.1384	143.00
69.3084	252.00
69.4784	239.00
69.6484	252.00
69.8184	251.00
69.9884	250.00

File: Li2S.csv
2Theta (degrees),Intensity
27.2403,100.0
31.5563,23.4057
45.2308,55.095
53.6051,36.0694
56.1943,4.51118
65.889,8.42164
72.6865,14.1911
74.8925,5.95001
83.5257,17.4013
89.8939,11.8516