Folder: herald_visualization/herald_visualization/XRD Plotting Scripts (Riley)/Figures/LiFeF2

Note: readme.md
This package is designed for plotting the data in herald project.
mpr_to_csv is used for transforming raw biologic mpr files to human-readable csv files.

File: FeF2.csv
2Theta (degrees),Intensity
27.1228,100.0
33.0341,63.2373
38.4306,23.4057
38.7337,7.33356
43.5247,6.19612
51.8,70.3213
55.0178,13.8887
55.9356,19.5197
62.3964,15.9348
63.0344,0.609272
63.2463,9.77836
66.5174,24.8187
69.3056,3.10037
69.9106,1.73389
72.6385,1.71231
73.429,0.290327
79.7157,5.5622
82.3312,10.697
83.0935,3.82709
86.2579,1.18803
88.6547,7.50469
89.411,4.47533

File: LiFeF3_780639.csv
2Theta (degrees),Intensity
17.9386,100.0
21.608,0.817498
24.0274,53.8266
27.8346,11.4724
30.1472,64.0162
30.386,0.0328792
33.2974,29.5312
33.3278,22.6395
35.4946,12.3866
35.5234,12.4973
36.3368,0.139993
37.0937,3.18827
38.3822,0.0129852
40.8498,22.1539
41.4803,18.3562
41.5055,15.3682
44.0363,12.3708
46.3589,12.5376
46.405,12.2163
46.4222,0.064075
48.0504,0.173696
48.0953,0.308786
49.2012,11.7289
50.1431,1.16592
50.1649,1.08728
52.368,0.0723748
52.7862,9.47162
52.8797,33.6285
52.9216,33.4547
55.7723,2.49724
57.2605,0.00204472
57.4725,13.1285
57.5069,15.6117
58.9667,0.0287221
60.3185,0.103781
60.7096,8.46755
60.7287,8.54151
60.7333,2.47844
60.7715,3.82587
61.5863,8.1628
62.1464,0.0345165
62.1841,0.031644
62.6805,4.60092
63.2211,5.77677
63.4346,2.78652
63.4905,3.53327
64.8141,1.67103
64.8694,1.62972
65.8058,0.17478
66.2825,4.8816
66.319,6.68388
68.4371,2.48803
68.8648,4.71602
68.9184,5.28293
69.9071,1.4078
69.9202,0.144482
69.9426,1.39174
69.9559,0.00846916
69.9867,0.0348733
69.9912,0.163152
71.2363,0.0142076
71.3067,0.00603062
72.8859,1.90554
72.9033,1.91392
72.9074,2.42491
72.9424,2.33194
75.1269,2.27583
75.1959,2.33479
75.3887,0.147325
75.4405,0.131431
77.1622,5.21216
77.2816,0.0606129
77.5324,2.16308
78.432,0.0684662
79.0121,4.84105
80.1222,3.01455
81.4552,0.0232635
81.4676,0.00244487
81.4889,0.0767539
81.5351,0.06712
81.8202,2.4361
81.8539,2.2131
82.21,2.84757
83.8533,0.520442
83.9204,0.546832
84.004,3.87138
84.2249,2.32527
84.2289,0.929998
84.2752,2.31267
84.3295,0.562703
85.1003,0.0107878
85.1673,0.0259045
85.4751,0.00163184
86.7902,1.6492
86.8069,2.02302
88.4395,0.142208
88.5269,5.4649
88.8009,0.128269
88.8296,0.522939
88.8964,0.543359
89.2032,3.02515
89.3033,2.33344

File: LiFeF3_1176698.csv
2Theta (degrees),Intensity
19.9486,34.4429
19.9981,34.7022
20.3586,33.541
27.2334,100.0
27.2491,99.9343
27.2539,99.6655
27.3025,99.3483
27.5165,98.8705
27.5802,98.9536
34.7273,25.6022
35.3769,22.8557
35.4645,21.3158
37.217,0.475912
39.5479,34.3405
39.5716,34.2531
40.1136,32.2752
40.1704,32.1663
40.1806,31.3419
40.2607,31.1762
40.5361,12.0514
40.6401,11.8596
41.3981,11.2931
42.568,8.91942
42.5706,8.74797
42.5892,8.77149
42.6365,8.62396
42.7436,7.9495
42.8303,7.50521
44.8293,24.6673
44.8497,24.7542
44.9038,24.341
44.967,24.3949
45.5942,22.3477
45.6766,22.3863
51.7942,47.7434
51.8327,47.6399
52.2403,47.4266
52.2853,48.3544
52.3329,47.2073
52.4161,47.9602
54.2648,3.62212
54.3273,3.29892
55.0272,3.85387
55.1922,3.92247
55.5428,2.69864
55.6454,2.69078
56.1791,1.30355
56.2137,1.32064
56.2242,1.35874
56.3314,1.35452
56.8034,1.68419
56.9442,1.76734
57.7782,10.9266
57.7876,10.9116
57.8208,11.0159
57.865,10.9845
58.4893,10.2853
58.5407,10.1305
58.6302,10.2307
58.7169,10.0402
58.9721,10.5617
59.0492,10.4156
59.062,10.5158
59.1567,10.3693
61.1789,8.85719
61.1854,8.74392
61.21,8.67764
61.2552,8.76748
61.3084,8.89883
61.4092,8.8457
62.6133,40.5466
62.7847,40.2137
64.0364,37.8989
65.8411,0.00413934
65.8647,0.00429271
65.9831,0.0122947
66.0563,0.0121114
67.191,0.0076124
67.2869,0.00874122
67.6335,1.22596
67.6507,1.16283
67.6565,1.24623
67.7374,1.30359
68.2657,1.15451
68.36,1.14957
68.3788,1.09206
68.538,1.07696
68.6504,4.25723
68.6973,1.07905
68.6991,4.23709
68.7719,1.07759
68.8391,1.08398
68.946,1.09021
69.0158,4.09878
69.0459,4.00087
69.1335,4.08658
69.2121,3.98256
72.4125,5.16308
72.4359,5.16842
72.4576,5.16129
72.5762,5.13747
72.9344,4.88714
73.1193,4.7907
73.2921,2.98281
74.8442,2.98715
75.0544,3.20728
75.1245,0.585601
75.169,0.578495
75.2351,0.577268
75.3734,0.573991
76.2997,2.4006
76.3308,2.39555
76.3675,0.528295
76.5493,0.51882
76.9262,0.401457
77.0651,0.37021
77.8089,2.43542
77.8183,0.442855
77.8839,2.43502
78.0011,2.54896
78.0778,0.485915
78.1069,2.54396
78.9722,0.565062
79.0928,0.546459
79.3153,18.4468
79.9038,3.9032
79.9046,3.95554
80.0114,3.90277
80.072,3.84947
80.7615,3.87103
80.8131,3.92094
80.9955,3.80705
81.0931,3.83649
81.8823,3.42909
81.9788,3.39692
81.9943,3.40919
82.106,3.38583
82.7593,3.51891
82.7659,3.52815
82.7681,0.590695
82.7815,0.581546
82.7834,3.54382
82.8104,0.625681
82.858,0.625442
82.879,0.581459
82.8791,3.49541
82.9977,0.617196
83.3315,3.35691
83.4221,3.35385
83.4638,3.3468
83.6457,3.34005
83.7245,3.52885
83.7867,3.45873
83.9239,3.53909
84.0318,3.46552
85.1602,9.43441
85.2209,9.41033
86.6133,8.77801
86.7601,8.74641
86.7864,8.41835
86.9937,8.37828
87.7083,0.175512
87.9792,0.18807
88.7067,1.08982
88.7082,1.07786
88.7831,1.14401
88.9026,1.15699
89.5271,0.924596
89.5528,1.9932
89.6133,1.98933
89.6291,0.88638
89.7356,0.888658
89.8656,0.00133358
89.8829,1.90303
89.9034,1.82364
89.9282,0.848524
89.9301,0.00188491
89.9498,0.00397291
89.9694,0.169606

File: LiFeF3_1176706.csv
2Theta (degrees),Intensity
18.0024,100.0
21.6921,0.893906
24.1384,56.1156
27.6741,12.0587
27.876,0.00679389
30.2763,65.2746
33.2122,56.2663
33.3836,0.00500809
35.4336,26.2591
36.4694,0.140911
37.0449,3.24328
38.527,0.0255936
41.0354,22.8091
41.0867,0.0469259
41.4782,36.3551
43.4725,0.00196467
44.2144,12.7448
46.3874,26.0645
48.0934,0.379335
49.0675,0.00124672
49.4402,12.2177
50.215,2.36981
51.5639,0.00186841
52.5957,0.0278791
52.9624,70.5048
53.038,9.77776
55.0623,0.0132807
55.9861,2.93018
57.1518,16.9399
57.4841,0.00147917
57.5988,13.5373
58.3369,0.0128337
60.4318,6.441
60.4595,0.0980285
60.8637,17.5597
61.8388,8.76358
61.8618,0.0653519
62.9366,6.27207
62.9726,4.66643
63.5768,6.13349
63.6819,0.0165604
64.9672,3.46624
66.045,12.0509
66.1374,0.187552
67.9172,0.00188525
68.7367,2.57718
69.0497,9.79439
69.7211,0.293674
69.8857,0.00557433
70.1219,2.96968
70.4849,0.00141073
71.0507,0.00237613
72.7393,5.15445
73.1331,4.02808
74.9803,4.76595
75.6255,0.290914
77.4847,5.42461
77.6101,0.00776643
77.6993,0.0679865
77.8991,2.24714
78.7646,0.0844221
78.8921,5.13223
79.5699,0.00553102
80.4307,0.0123779
80.5559,3.17542
81.3817,0.00809246
81.738,4.88833
81.7623,0.0628152
82.5732,2.95692
84.1282,1.10527
84.1566,1.71144
84.3388,3.98581
84.535,4.90403
85.3859,0.0175291
85.4144,0.00136147
86.1388,0.00296395
87.1518,3.74913
88.8563,0.0932812
89.0135,5.63644
89.1483,1.072
89.1767,5.78733
89.2611,0.135561