Folder: herald_visualization/herald_visualization/XRD Plotting Scripts (Riley)

Note: readme.md
This package is designed for plotting the data in herald project.
mpr_to_csv is used for transforming raw biologic mpr files to human-readable csv files.

File: Fe0p56Mn0p44F3_60to25wt_SuperP_100min_20-70deg.csv
2Theta,Intensity
20.0084,7095.0
20.1755,6977.0
20.3426,7004.0
20.5097,7031.0
20.6768,6877.0
20.8439,6769.0
21.011,6743.0
21.1781,6736.0
21.3453,6669.0
21.5124,6637.0
21.6795,6549.0
21.8466,6403.0
22.0137,6484.0
22.1808,6251.0
22.3479,6370.0
22.515,6378.0
22.6822,6406.0
22.8493,6418.0
23.0164,6695.0
23.1835,7156.0
23.3506,8253.0
23.5177,10103.0
23.6848,9872.0
23.8519,8306.0
24.0191,7183.0
24.1862,6857.0
24.3533,6418.0
24.5204,6151.0
24.6875,6139.0
24.8546,6041.0
25.0217,5849.0
25.1888,5833.0
25.356,5838.0
25.5231,5905.0
25.6902,5847.0
25.8573,5992.0
26.0244,6052.0
26.1915,5826.0
26.3586,5787.0
26.5258,5651.0
26.6929,5588.0
26.86,5681.0
27.0271,5750.0
27.1942,5625.0
27.3613,5794.0
27.5284,5629.0
27.6955,5591.0
27.8627,5572.0
28.0298,5542.0
28.1969,5629.0
28.364,5555.0
28.5311,5538.0
28.6982,5520.0
28.8653,5583.0
29.0324,5391.0
29.1996,5333.0
29.3667,5422.0
29.5338,5242.0
29.7009,5363.0
29.868,5288.0
30.0351,5329.0
30.2022,5387.0
30.3693,5359.0
30.5365,5347.0
30.7036,5165.0
30.8707,5335.0
31.0378,5179.0
31.2049,5187.0
31.372,5270.0
31.5391,5003.0
31.7062,5146.0
31.8734,5104.0
32.0405,5124.0
32.2076,5087.0
32.3747,5081.0
32.5418,5181.0
32.7089,5273.0
32.876,5343.0
33.0431,5374.0
33.2103,5542.0
33.3774,5314.0
33.5445,5323.0
33.7116,5335.0
33.8787,5247.0
34.0458,5155.0
34.2129,5191.0
34.38,5067.0
34.5472,5038.0
34.7143,5041.0
34.8814,5041.0
35.0485,4992.0
35.2156,5106.0
35.3827,4883.0
35.5498,4936.0
35.7169,4928.0
35.8841,4951.0
36.0512,4900.0
36.2183,4968.0
36.3854,4915.0
36.5525,4959.0
36.7196,4808.0
36.8867,4858.0
37.0538,4839.0
37.221,4847.0
37.3881,4973.0
37.5552,4920.0
37.7223,4845.0
37.8894,4929.0
38.0565,4966.0
38.2236,5004.0
38.3908,4958.0
38.5579,4937.0
38.725,5024.0
38.8921,4837.0
39.0592,5080.0
39.2263,4832.0
39.3934,4999.0
39.5605,5078.0
39.7277,5116.0
39.8948,5229.0
40.0619,5281.0
40.229,5377.0
40.3961,5057.0
40.5632,5155.0
40.7303,5108.0
40.8974,4922.0
41.0646,5012.0
41.2317,5024.0
41.3988,4976.0
41.5659,4964.0
41.733,5037.0
41.9001,4945.0
42.0672,4908.0
42.2343,4952.0
42.4015,4950.0
42.5686,5029.0
42.7357,4839.0
42.9028,4844.0
43.0699,4966.0
43.237,4864.0
43.4041,4926.0
43.5712,4974.0
43.7384,5000.0
43.9055,4781.0
44.0726,5021.0
44.2397,4902.0
44.4068,4904.0
44.5739,5007.0
44.741,4882.0
44.9081,4825.0
45.0753,4818.0
45.2424,4982.0
45.4095,5124.0
45.5766,4830.0
45.7437,4764.0
45.9108,4930.0
46.0779,4855.0
46.245,4835.0
46.4122,4903.0
46.5793,5046.0
46.7464,4778.0
46.9135,4888.0
47.0806,4879.0
47.2477,4862.0
47.4148,4860.0
47.5819,4941.0
47.7491,4989.0
47.9162,5086.0
48.0833,5167.0
48.2504,5422.0
48.4175,5413.0
48.5846,5402.0
48.7517,5369.0
48.9189,5297.0
49.086,5205.0
49.2531,4902.0
49.4202,5107.0
49.5873,5206.0
49.7544,5035.0
49.9215,4952.0
50.0886,5067.0
50.2558,5025.0
50.4229,4922.0
50.59,4958.0
50.7571,4958.0
50.9242,4977.0
51.0913,4903.0
51.2584,4961.0
51.4255,4839.0
51.5927,4899.0
51.7598,4863.0
51.9269,4844.0
52.094,4907.0
52.2611,4970.0
52.4282,4839.0
52.5953,4790.0
52.7624,4965.0
52.9296,4983.0
53.0967,4898.0
53.2638,5060.0
53.4309,5108.0
53.598,5146.0
53.7651,5174.0
53.9322,5436.0
54.0993,5618.0
54.2665,5283.0
54.4336,5385.0
54.6007,5277.0
54.7678,5219.0
54.9349,5170.0
55.102,5144.0
55.2691,5138.0
55.4362,5139.0
55.6034,5101.0
55.7705,5080.0
55.9376,4993.0
56.1047,4871.0
56.2718,4940.0
56.4389,4956.0
56.606,4940.0
56.7731,4998.0
56.9403,4972.0
57.1074,4904.0
57.2745,4828.0
57.4416,4825.0
57.6087,4834.0
57.7758,4810.0
57.9429,4735.0
58.11,4833.0
58.2772,4829.0
58.4443,4729.0
58.6114,4845.0
58.7785,4898.0
58.9456,4807.0
59.1127,4668.0
59.2798,4807.0
59.447,4800.0
59.6141,4720.0
59.7812,4910.0
59.9483,4874.0
60.1154,4996.0
60.2825,4861.0
60.4496,4928.0
60.6167,5007.0
60.7839,4975.0
60.951,5022.0
61.1181,5054.0
61.2852,4892.0
61.4523,4993.0
61.6194,4934.0
61.7865,4923.0
61.9536,4923.0
62.1208,4926.0
62.2879,4893.0
62.455,4846.0
62.6221,4853.0
62.7892,4898.0
62.9563,4856.0
63.1234,4844.0
63.2905,4831.0
63.4577,4936.0
63.6248,4841.0
63.7919,4809.0
63.959,4668.0
64.1261,4683.0
64.2932,4804.0
64.4603,4701.0
64.6274,4663.0
64.7946,4785.0
64.9617,4937.0
65.1288,4837.0
65.2959,4693.0
65.463,4754.0
65.6301,4718.0
65.7972,4819.0
65.9643,4675.0
66.1315,4763.0
66.2986,4601.0
66.4657,4652.0
66.6328,4701.0
66.7999,4874.0
66.967,4802.0
67.1341,4679.0
67.3012,4730.0
67.4684,4748.0
67.6355,4661.0
67.8026,4767.0
67.9697,4734.0
68.1368,4760.0
68.3039,4646.0
68.471,4708.0
68.6381,4678.0
68.8053,4695.0
68.9724,4718.0
69.1395,4930.0
69.3066,4782.0
69.4737,4909.0
69.6408,4817.0
69.8079,4786.0
69.975,4780.0
69.9918,4887.0