Folder: herald_visualization/herald_visualization/XRD_Plotting/Figures/(FeMn)F3

Note: readme.md
This package is designed for plotting the data in herald project.
mpr_to_csv is used for transforming raw biologic mpr files to human-readable csv files.

File: 241203-Fe0p56Mn0p44F3-ball_milled_24h-20-70deg-40min.csv
2Theta,Intensity
20.0084,6853.0
20.1755,6720.0
20.3426,6665.0
20.5097,6432.0
20.6768,6448.0
20.8439,6633.0
21.011,6192.0
21.1781,6303.0
21.3453,6212.0
21.5124,6218.0
21.6795,6046.0
21.8466,6072.0
22.0137,5967.0
22.1808,5825.0
22.3479,5767.0
22.515,5663.0
22.6822,5742.0
22.8493,5851.0
23.0164,5952.0
23.1835,6083.0
23.3506,7054.0
23.5177,10089.0
23.6848,11012.0
23.8519,8236.0
24.0191,7103.0
24.1862,6475.0
24.3533,5867.0
24.5204,5424.0
24.6875,5559.0
24.8546,5414.0
25.0217,5380.0
25.1888,5317.0
25.356,5146.0
25.5231,5241.0
25.6902,5094.0
25.8573,5093.0
26.0244,5143.0
26.1915,5074.0
26.3586,4980.0
26.5258,5115.0
26.6929,5061.0
26.86,4986.0
27.0271,4998.0
27.1942,5071.0
27.3613,5067.0
27.5284,4954.0
27.6955,4813.0
27.8627,4990.0
28.0298,4936.0
28.1969,4940.0
28.364,4789.0
28.5311,4887.0
28.6982,4949.0
28.8653,4692.0
29.0324,4818.0
29.1996,4899.0
29.3667,4803.0
29.5338,4654.0
29.7009,4737.0
29.868,4688.0
30.0351,4724.0
30.2022,4729.0
30.3693,4724.0
30.5365,4606.0
30.7036,4682.0
30.8707,4587.0
31.0378,4544.0
31.2049,4489.0
31.372,4702.0
31.5391,4553.0
31.7062,4529.0
31.8734,4627.0
32.0405,4620.0
32.2076,4510.0
32.3747,4768.0
32.5418,4636.0
32.7089,4803.0
32.876,4739.0
33.0431,4821.0
33.2103,5163.0
33.3774,5032.0
33.5445,4870.0
33.7116,4815.0
33.8787,4724.0
34.0458,4669.0
34.2129,4797.0
34.38,4714.0
34.5472,4619.0
34.7143,4463.0
34.8814,4496.0
35.0485,4418.0
35.2156,4547.0
35.3827,4510.0
35.5498,4326.0
35.7169,4345.0
35.8841,4402.0
36.0512,4426.0
36.2183,4353.0
36.3854,4329.0
36.5525,4422.0
36.7196,4399.0
36.8867,4460.0
37.0538,4231.0
37.221,4226.0
37.3881,4235.0
37.5552,4327.0
37.7223,4300.0
37.8894,4430.0
38.0565,4298.0
38.2236,4387.0
38.3908,4342.0
38.5579,4277.0
38.725,4337.0
38.8921,4249.0
39.0592,4462.0
39.2263,4331.0
39.3934,4475.0
39.5605,4596.0
39.7277,4841.0
39.8948,5002.0
40.0619,4774.0
40.229,4709.0
40.3961,4596.0
40.5632,4585.0
40.7303,4577.0
40.8974,4465.0
41.0646,4590.0
41.2317,4364.0
41.3988,4356.0
41.5659,4328.0
41.733,4387.0
41.9001,4389.0
42.0672,4441.0
42.2343,4365.0
42.4015,4245.0
42.5686,4278.0
42.7357,4213.0
42.9028,4328.0
43.0699,4229.0
43.237,4355.0
43.4041,4303.0
43.5712,4224.0
43.7384,4353.0
43.9055,4282.0
44.0726,4293.0
44.2397,4252.0
44.4068,4229.0
44.5739,4158.0
44.741,4240.0
44.9081,4213.0
45.0753,4183.0
45.2424,4240.0
45.4095,4192.0
45.5766,4245.0
45.7437,4042.0
45.9108,4269.0
46.0779,4193.0
46.245,4326.0
46.4122,4097.0
46.5793,4239.0
46.7464,4215.0
46.9135,4152.0
47.0806,4204.0
47.2477,4156.0
47.4148,4212.0
47.5819,4309.0
47.7491,4263.0
47.9162,4387.0
48.0833,4499.0
48.2504,4708.0
48.4175,5114.0
48.5846,5427.0
48.7517,5001.0
48.9189,4662.0
49.086,4617.0
49.2531,4394.0
49.4202,4364.0
49.5873,4341.0
49.7544,4383.0
49.9215,4345.0
50.0886,4345.0
50.2558,4323.0
50.4229,4295.0
50.59,4256.0
50.7571,4332.0
50.9242,4261.0
51.0913,4211.0
51.2584,4143.0
51.4255,4213.0
51.5927,4139.0
51.7598,4160.0
51.9269,4299.0
52.094,4204.0
52.2611,4232.0
52.4282,4387.0
52.5953,4262.0
52.7624,4399.0
52.9296,4249.0
53.0967,4476.0
53.2638,4391.0
53.4309,4547.0
53.598,4616.0
53.7651,4825.0
53.9322,5095.0
54.0993,5270.0
54.2665,5116.0
54.4336,4797.0
54.6007,4747.0
54.7678,4701.0
54.9349,4815.0
55.102,4774.0
55.2691,4773.0
55.4362,4891.0
55.6034,4826.0
55.7705,4459.0
55.9376,4556.0
56.1047,4410.0
56.2718,4397.0
56.4389,4243.0
56.606,4254.0
56.7731,4527.0
56.9403,4327.0
57.1074,4361.0
57.2745,4290.0
57.4416,4186.0
57.6087,4350.0
57.7758,4400.0
57.9429,4303.0
58.11,4306.0
58.2772,4296.0
58.4443,4330.0
58.6114,4402.0
58.7785,4322.0
58.9456,4330.0
59.1127,4316.0
59.2798,4164.0
59.447,4327.0
59.6141,4218.0
59.7812,4336.0
59.9483,4341.0
60.1154,4212.0
60.2825,4313.0
60.4496,4297.0
60.6167,4421.0
60.7839,4456.0
60.951,4452.0
61.1181,4498.0
61.2852,4515.0
61.4523,4513.0
61.6194,4421.0
61.7865,4397.0
61.9536,4226.0
62.1208,4363.0
62.2879,4346.0
62.455,4247.0
62.6221,4447.0
62.7892,4373.0
62.9563,4234.0
63.1234,4394.0
63.2905,4350.0
63.4577,4187.0
63.6248,4489.0
63.7919,4349.0
63.959,4392.0
64.1261,4250.0
64.2932,4362.0
64.4603,4155.0
64.6274,4253.0
64.7946,4322.0
64.9617,4262.0
65.1288,4393.0
65.2959,4208.0
65.463,4281.0
65.6301,4337.0
65.7972,4149.0
65.9643,4149.0
66.1315,4213.0
66.2986,4237.0
66.4657,4273.0
66.6328,4327.0
66.7999,4389.0
66.967,4311.0
67.1341,4124.0
67.3012,4250.0
67.4684,4159.0
67.6355,4381.0
67.8026,4164.0
67.9697,4281.0
68.1368,4238.0
68.3039,4099.0
68.471,4379.0
68.6381,4325.0
68.8053,4347.0
68.9724,4255.0
69.1395,4291.0
69.3066,4263.0
69.4737,4300.0
69.6408,4389.0
69.8079,4418.0
69.975,4451.0
69.9918,4389.0