Folder: herald_visualization/herald_visualization/XRD_Plotting/Figures/CrF3

Note: readme.md
This package is designed for plotting the data in herald project.
mpr_to_csv is used for transforming raw biologic mpr files to human-readable csv files.

File: 250110-CrF3-as_received-20-70deg-40min.csv
2Theta,Intensity
20.0084,4383.0
20.1755,4377.0
20.3426,4300.0
20.5097,4198.0
20.6768,4173.0
20.8439,3986.0
21.011,3961.0
21.1781,3932.0
21.3453,3795.0
21.5124,3931.0
21.6795,3682.0
21.8466,3618.0
22.0137,3587.0
22.1808,3404.0
22.3479,3427.0
22.515,3210.0
22.6822,3247.0
22.8493,3175.0
23.0164,3081.0
23.1835,3138.0
23.3506,2997.0
23.5177,3083.0
23.6848,3076.0
23.8519,3252.0
24.0191,3241.0
24.1862,3208.0
24.3533,3184.0
24.5204,3539.0
24.6875,3239.0
24.8546,2849.0
25.0217,2683.0
25.1888,2721.0
25.356,2713.0
25.5231,2663.0
25.6902,2645.0
25.8573,2583.0
26.0244,2486.0
26.1915,2547.0
26.3586,2615.0
26.5258,2522.0
26.6929,2541.0
26.86,2660.0
27.0271,2954.0
27.1942,2562.0
27.3613,2498.0
27.5284,2750.0
27.6955,3403.0
27.8627,3104.0
28.0298,3044.0
28.1969,2682.0
28.364,2557.0
28.5311,2456.0
28.6982,2247.0
28.8653,2180.0
29.0324,2128.0
29.1996,2187.0
29.3667,2130.0
29.5338,2141.0
29.7009,2020.0
29.868,2067.0
30.0351,2033.0
30.2022,1921.0
30.3693,1959.0
30.5365,1879.0
30.7036,1942.0
30.8707,1893.0
31.0378,1954.0
31.2049,1845.0
31.372,1857.0
31.5391,1828.0
31.7062,1847.0
31.8734,1687.0
32.0405,1752.0
32.2076,1738.0
32.3747,1803.0
32.5418,1716.0
32.7089,1795.0
32.876,1682.0
33.0431,1722.0
33.2103,1697.0
33.3774,1673.0
33.5445,1721.0
33.7116,1626.0
33.8787,1672.0
34.0458,1716.0
34.2129,1667.0
34.38,1663.0
34.5472,1652.0
34.7143,1804.0
34.8814,1861.0
35.0485,1590.0
35.2156,1593.0
35.3827,1601.0
35.5498,1563.0
35.7169,1620.0
35.8841,1549.0
36.0512,1443.0
36.2183,1491.0
36.3854,1547.0
36.5525,1477.0
36.7196,1520.0
36.8867,1625.0
37.0538,1594.0
37.221,1603.0
37.3881,1563.0
37.5552,1609.0
37.7223,1478.0
37.8894,1488.0
38.0565,1466.0
38.2236,1473.0
38.3908,1386.0
38.5579,1480.0
38.725,1494.0
38.8921,1400.0
39.0592,1453.0
39.2263,1343.0
39.3934,1357.0
39.5605,1431.0
39.7277,1457.0
39.8948,1486.0
40.0619,1478.0
40.229,1386.0
40.3961,1358.0
40.5632,1405.0
40.7303,1327.0
40.8974,1393.0
41.0646,1408.0
41.2317,1403.0
41.3988,1471.0
41.5659,1465.0
41.733,1452.0
41.9001,1369.0
42.0672,1365.0
42.2343,1354.0
42.4015,1370.0
42.5686,1396.0
42.7357,1375.0
42.9028,1306.0
43.0699,1361.0
43.237,1324.0
43.4041,1331.0
43.5712,1394.0
43.7384,1361.0
43.9055,1370.0
44.0726,1318.0
44.2397,1315.0
44.4068,1411.0
44.5739,1437.0
44.741,1307.0
44.9081,1356.0
45.0753,1315.0
45.2424,1323.0
45.4095,1289.0
45.5766,1267.0
45.7437,1266.0
45.9108,1316.0
46.0779,1229.0
46.245,1347.0
46.4122,1273.0
46.5793,1283.0
46.7464,1278.0
46.9135,1255.0
47.0806,1229.0
47.2477,1246.0
47.4148,1201.0
47.5819,1261.0
47.7491,1289.0
47.9162,1159.0
48.0833,1238.0
48.2504,1205.0
48.4175,1229.0
48.5846,1295.0
48.7517,1332.0
48.9189,1351.0
49.086,1356.0
49.2531,1358.0
49.4202,1389.0
49.5873,1425.0
49.7544,1378.0
49.9215,1285.0
50.0886,1355.0
50.2558,1389.0
50.4229,1320.0
50.59,1322.0
50.7571,1306.0
50.9242,1198.0
51.0913,1219.0
51.2584,1282.0
51.4255,1192.0
51.5927,1277.0
51.7598,1189.0
51.9269,1186.0
52.094,1229.0
52.2611,1217.0
52.4282,1183.0
52.5953,1200.0
52.7624,1217.0
52.9296,1556.0
53.0967,1487.0
53.2638,1192.0
53.4309,1278.0
53.598,1211.0
53.7651,1187.0
53.9322,1094.0
54.0993,1206.0
54.2665,1132.0
54.4336,1177.0
54.6007,1226.0
54.7678,1188.0
54.9349,1239.0
55.102,1261.0
55.2691,1321.0
55.4362,1315.0
55.6034,1294.0
55.7705,1372.0
55.9376,1321.0
56.1047,1276.0
56.2718,1177.0
56.4389,1249.0
56.606,1157.0
56.7731,1140.0
56.9403,1148.0
57.1074,1219.0
57.2745,1208.0
57.4416,1255.0
57.6087,1221.0
57.7758,1224.0
57.9429,1173.0
58.11,1197.0
58.2772,1128.0
58.4443,1152.0
58.6114,1094.0
58.7785,1135.0
58.9456,1144.0
59.1127,1095.0
59.2798,1090.0
59.447,1061.0
59.6141,1077.0
59.7812,1113.0
59.9483,1118.0
60.1154,1014.0
60.2825,1013.0
60.4496,1102.0
60.6167,1037.0
60.7839,1047.0
60.951,1028.0
61.1181,1025.0
61.2852,1010.0
61.4523,1006.0
61.6194,1020.0
61.7865,952.0
61.9536,1046.0
62.1208,1031.0
62.2879,1018.0
62.455,1064.0
62.6221,1053.0
62.7892,1064.0
62.9563,1060.0
63.1234,1189.0
63.2905,1048.0
63.4577,1066.0
63.6248,1088.0
63.7919,1029.0
63.959,1092.0
64.1261,1094.0
64.2932,1078.0
64.4603,1041.0
64.6274,1001.0
64.7946,1051.0
64.9617,1020.0
65.1288,1015.0
65.2959,955.0
65.3293,1022.0