Folder: herald_visualization/herald_visualization/XRD_Plotting/Figures/Fe0p56Mn0p44F3_SuperP

Note: readme.md
This package is designed for plotting the data in herald project.
mpr_to_csv is used for transforming raw biologic mpr files to human-readable csv files.

File: FeF3.csv
2Theta (degrees),Intensity
24.3182,100
24.3963,48.7648
33.5825,11.3439
33.7002,23.6377
35.7069,7.93452
35.7083,3.37709
39.3094,0.0121219
40.205,0.00364674
41.0796,10.959
41.1549,10.4016
41.2276,11.1211
42.0155,0.00115183
43.6258,3.20054
43.7214,6.70477
49.8277,17.1879
49.996,8.18181
52.0411,0.00494132
54.2448,0.00319708
54.7285,14.2391
54.8487,14.9787
54.9667,14.1802
56.2701,0.621083
56.3117,0.611992
56.3296,0.603487
57.5978,6.30795
57.6378,5.76881
57.7121,6.09869
58.797,4.20311
58.9484,2.26343
62.7255,4.52166
62.874,4.52416
62.9454,4.48984
64.1477,5.98509
64.1504,11.9951
66.4734,0.349609
66.5634,0.291822
66.7378,0.295457
67.8028,0.00367602
67.908,0.00470378
70.5879,2.70209
70.8642,4.91467
73.5621,1.14413
73.5637,1.78127
73.7152,1.11487
73.7332,3.28405
73.8665,1.22147
75.6377,1.29839
75.6411,0.74893
75.9305,0.200507
76.1669,0.198941
76.2825,0.161303
78.2763,0.166037
78.3783,0.31345
78.5771,0.284561
78.6739,0.136383
79.0072,0.568038
79.1097,0.643901
79.2055,0.589132
79.6724,0.341944
79.6908,0.291336
79.7362,0.326125
80.7655,3.31594
80.8682,3.44997
80.8992,3.20026
81.6999,1.86184
81.7047,0.0032401
81.8324,2.15484
82.0925,1.93839
84.5517,0.932401
84.8767,0.536385
85.282,1.00759
85.3491,0.901022
85.5404,0.990333
86.8496,2.69035
88.5881,0.257004
88.8357,0.187498
88.915,0.236059
89.1296,2.53283
89.3277,2.36901
89.5192,2.60596

File: Manganese Fluoride.xy
2Theta Intensity
20.0084	6925.00
20.1784	6881.00
20.3484	6837.00
20.5184	6795.00
20.6884	6753.00
20.8584	6711.00
21.0284	6671.00
21.1984	6631.00
21.3684	6592.00
21.5384	6554.00
21.7084	6516.00
21.8784	6479.00
22.0484	6443.00
22.2184	6409.00
22.3884	6378.00
22.5584	6360.00
22.7284	6358.00
22.8984	6332.00
23.0684	6268.00
23.2384	6213.00
23.4084	6174.00
23.5784	6140.00
23.7484	6109.00
23.9184	6078.00
24.0884	6048.00
24.2584	6018.00
24.4284	5989.00
24.5984	5961.00
24.7684	5933.00
24.9384	5906.00
25.1084	5879.00
25.2784	5853.00
25.4484	5827.00
25.6184	5801.00
25.7884	5776.00
25.9584	5752.00
26.1284	5728.00
26.2984	5705.00
26.4684	5682.00
26.6384	5659.00
26.8084	5637.00
26.9784	5615.00
27.1484	5594.00
27.3184	5573.00
27.4884	5553.00
27.6584	5533.00
27.8284	5514.00
27.9984	5496.00
28.1684	5478.00
28.3384	5463.00
28.5084	5452.00
28.6784	5460.00
28.8484	5505.00
29.0184	5540.00
29.1884	5471.00
29.3584	5392.00
29.5284	5351.00
29.6984	5328.00
29.8684	5310.00
30.0384	5293.00
30.2084	5278.00
30.3784	5263.00
30.5484	5249.00
30.7184	5235.00
30.8884	5221.00
31.0584	5209.00
31.2284	5197.00
31.3984	5186.00
31.5684	5174.00
31.7384	5160.00
31.9084	5148.00
32.0784	5137.00
32.2484	5126.00
32.4184	5115.00
32.5884	5105.00
32.7584	5095.00
32.9284	5085.00
33.0984	5076.00
33.2684	5067.00
33.4384	5059.00
33.6084	5052.00
33.7784	5044.00
33.9484	5034.00
34.1184	5025.00
34.2884	5017.00
34.4584	5010.00
34.6284	5002.00
34.7984	4996.00
34.9684	4989.00
35.1384	4983.00
35.3084	4978.00
35.4784	4976.00
35.6484	4974.00
35.8184	4967.00
35.9884	4957.00
36.1584	4949.00
36.3284	4944.00
36.4984	4939.00
36.6684	4934.00
36.8384	4929.00
37.0084	4925.00
37.1784	4921.00
37.3484	4918.00
37.5184	4914.00
37.6884	4911.00
37.8584	4908.00
38.0284	4908.00
38.1984	4911.00
38.3684	4911.00
38.5384	4903.00
38.7084	4897.00
38.8784	4897.00
39.0484	4902.00
39.2184	4903.00
39.3884	4894.00
39.5584	4886.00
39.7284	4882.00
39.8984	4880.00
40.0684	4878.00
40.2384	4877.00
40.4084	4875.00
40.5784	4874.00
40.7484	4873.00
40.9184	4873.00
41.0884	4873.00
41.2584	4877.00
41.4284	4887.00
41.5984	4898.00
41.7684	4891.00
41.9384	4878.00
42.1084	4871.00
42.2784	4870.00
42.4484	4870.00
42.6184	4874.00
42.7884	4880.00
42.9584	4881.00
43.1284	4874.00
43.2984	4870.00
43.4684	4869.00
43.6384	4869.00
43.8084	4869.00
43.9784	4869.00
44.1484	4869.00
44.3184	4870.00
44.4884	4870.00
44.6584	4871.00
44.8284	4872.00
44.9984	4872.00
45.1684	4873.00
45.3384	4874.00
45.5084	4874.00
45.6784	4875.00
45.8484	4876.00
46.0184	4877.00
46.1884	4878.00
46.3584	4879.00
46.5284	4881.00
46.6984	4886.00
46.8684	4890.00
47.0384	4888.00
47.2084	4885.00
47.3784	4885.00
47.5484	4885.00
47.7184	4887.00
47.8884	4889.00
48.0584	4897.00
48.2284	4913.00
48.3984	4927.00
48.5684	4917.00
48.7384	4901.00
48.9084	4894.00
49.0784	4893.00
49.2484	4893.00
49.4184	4894.00
49.5884	4895.00
49.7584	4898.00
49.9284	4902.00
50.0984	4909.00
50.2684	4924.00
50.4384	4944.00
50.6084	4938.00
50.7784	4915.00
50.9484	4903.00
51.1184	4900.00
51.2884	4899.00
51.4584	4898.00
51.6284	4897.00
51.7984	4896.00
51.9684	4896.00
52.1384	4895.00
52.3084	4895.00
52.4784	4895.00
52.6484	4895.00
52.8184	4894.00
52.9884	4894.00
53.1584	4893.00
53.3284	4893.00
53.4984	4892.00
53.6684	4892.00
53.8384	4892.00
54.0084	4894.00
54.1784	4900.00
54.3484	4907.00
54.5184	4910.00
54.6884	4911.00
54.8584	4902.00
55.0284	4891.00
55.1984	4885.00
55.3684	4882.00
55.5384	4880.00
55.7084	4879.00
55.8784	4877.00
56.0484	4875.00
56.2184	4874.00
56.3884	4872.00
56.5584	4870.00
56.7284	4868.00
56.8984	4866.00
57.0684	4864.00
57.2384	4862.00
57.4084	4860.00
57.5784	4858.00
57.7484	4856.00
57.9184	4854.00
58.0884	4852.00
58.2584	4850.00
58.4284	4847.00
58.5984	4845.00
58.7684	4843.00
58.9384	4840.00
59.1084	4838.00
59.2784	4835.00
59.4484	4833.00
59.6184	4831.00
59.7884	4829.00
59.9584	4830.00
60.1284	4834.00
60.2984	4835.00
60.4684	4827.00
60.6384	4818.00
60.8084	4813.00
60.9784	4809.00
61.1484	4807.00
61.3184	4805.00
61.4884	4802.00
61.6584	4798.00
61.8284	4794.00
61.9984	4791.00
62.1684	4788.00
62.3384	4785.00
62.5084	4783.00
62.6784	4780.00
62.8484	4778.00
63.0184	4777.00
63.1884	4776.00
63.3584	4773.00
63.5284	4768.00
63.6984	4765.00
63.8684	4763.00
64.0384	4762.00
64.2084	4760.00
64.3784	4756.00
64.5484	4752.00
64.7184	4749.00
64.8884	4747.00
65.0584	4745.00
65.2284	4743.00
65.3984	4742.00
65.5684	4742.00
65.7384	4747.00
65.9084	4754.00
66.0784	4754.00
66.2484	4746.00
66.4184	4738.00
66.5884	4737.00
66.7584	4739.00
66.9284	4738.00
67.0984	4733.00
67.2684	4729.00
67.4384	4727.00
67.6084	4726.00
67.7784	4726.00
67.9484	4726.00
68.1184	4726.00
68.2884	4727.00
68.4584	4728.00
68.6284	4729.00
68.7984	4730.00
68.9684	4731.00
69.1384	4733.00
69.3084	4735.00
69.4784	4737.00
69.6484	4739.00
69.8184	4742.00
69.9884	4745.00

File: MnF2.csv
2Theta (degrees),Intensity
23.652,35.2883
28.9959,100.0
30.7952,3.95454
33.4237,8.46237
35.149,10.6575
36.3903,1.87572
38.1989,10.3995
39.7442,19.2875
41.3559,9.45513
43.2476,0.382654
46.0824,7.34877
48.3946,7.66536
49.8439,0.513827
50.2369,24.6791
50.6538,13.8849
51.4899,31.3248
52.8168,0.270408
53.654,0.323392
57.0508,15.2931
58.2653,0.677951
60.0914,3.20995
60.8631,14.6407
61.011,12.6988
62.0549,12.8113
63.4867,0.199302
64.0143,0.0426088
64.1503,2.58437
66.6806,1.12306
66.7548,5.84807
67.7348,2.23343
68.8625,3.12665
69.7623,0.577847
70.2156,1.3458
71.1936,0.0203996
73.0287,0.684982
73.1582,1.11276
74.2981,0.0503333
74.8171,0.00242289
75.2347,0.0888326
75.2572,1.47103
75.8777,2.90599
76.0541,0.0257853
77.1805,1.11577
77.2924,3.70154
78.4829,3.97645
78.6101,1.14579
81.148,3.25365
81.4465,0.0952431
81.751,4.09592
81.7564,0.12537
83.787,0.0568982
85.4701,0.462117
85.4911,5.45945
85.6628,2.15485
85.985,0.747036
86.3359,1.04311
86.8703,1.30566
87.241,0.0118715
87.8432,1.812
88.357,2.83433
88.8914,0.14296
89.1316,0.00324629
89.858,1.11654