Folder: herald_visualization/herald_visualization/XRD_Plotting/Figures/FeF3

Note: readme.md
This package is designed for plotting the data in herald project.
mpr_to_csv is used for transforming raw biologic mpr files to human-readable csv files.

File: 241216-FeF3-ball_milled_24h-20-70deg-40min.csv
2Theta,Intensity
20.0084,5861.0
20.1755,5716.0
20.3426,5759.0
20.5097,5638.0
20.6768,5528.0
20.8439,5547.0
21.011,5455.0
21.1781,5369.0
21.3453,5436.0
21.5124,5319.0
21.6795,5329.0
21.8466,5101.0
22.0137,5209.0
22.1808,5041.0
22.3479,4955.0
22.515,5023.0
22.6822,5024.0
22.8493,5146.0
23.0164,5071.0
23.1835,5417.0
23.3506,6535.0
23.5177,9118.0
23.6848,7890.0
23.8519,5799.0
24.0191,5177.0
24.1862,4991.0
24.3533,4692.0
24.5204,4547.0
24.6875,4531.0
24.8546,4430.0
25.0217,4501.0
25.1888,4475.0
25.356,4413.0
25.5231,4385.0
25.6902,4462.0
25.8573,4365.0
26.0244,4293.0
26.1915,4361.0
26.3586,4342.0
26.5258,4278.0
26.6929,4446.0
26.86,4331.0
27.0271,4302.0
27.1942,4329.0
27.3613,4142.0
27.5284,4310.0
27.6955,4175.0
27.8627,4170.0
28.0298,4208.0
28.1969,4135.0
28.364,4255.0
28.5311,4159.0
28.6982,4144.0
28.8653,4165.0
29.0324,4151.0
29.1996,4078.0
29.3667,4022.0
29.5338,3948.0
29.7009,3906.0
29.868,4038.0
30.0351,3891.0
30.2022,3776.0
30.3693,3935.0
30.5365,3884.0
30.7036,3794.0
30.8707,3883.0
31.0378,3849.0
31.2049,3923.0
31.372,3845.0
31.5391,3835.0
31.7062,3913.0
31.8734,3897.0
32.0405,3830.0
32.2076,3755.0
32.3747,3741.0
32.5418,3865.0
32.7089,3790.0
32.876,4030.0
33.0431,4066.0
33.2103,4222.0
33.3774,4154.0
33.5445,4114.0
33.7116,3830.0
33.8787,3865.0
34.0458,3928.0
34.2129,3812.0
34.38,3829.0
34.5472,3680.0
34.7143,3781.0
34.8814,3747.0
35.0485,3633.0
35.2156,3629.0
35.3827,3735.0
35.5498,3733.0
35.7169,3616.0
35.8841,3533.0
36.0512,3666.0
36.2183,3670.0
36.3854,3605.0
36.5525,3591.0
36.7196,3590.0
36.8867,3561.0
37.0538,3588.0
37.221,3539.0
37.3881,3563.0
37.5552,3582.0
37.7223,3609.0
37.8894,3592.0
38.0565,3447.0
38.2236,3505.0
38.3908,3504.0
38.5579,3599.0
38.725,3570.0
38.8921,3566.0
39.0592,3583.0
39.2263,3648.0
39.3934,3646.0
39.5605,3772.0
39.7277,3878.0
39.8948,3968.0
40.0619,3757.0
40.229,3719.0
40.3961,3713.0
40.5632,3612.0
40.7303,3608.0
40.8974,3624.0
41.0646,3646.0
41.2317,3588.0
41.3988,3543.0
41.5659,3598.0
41.733,3635.0
41.9001,3595.0
42.0672,3472.0
42.2343,3537.0
42.4015,3437.0
42.5686,3576.0
42.7357,3511.0
42.9028,3509.0
43.0699,3423.0
43.237,3552.0
43.4041,3481.0
43.5712,3422.0
43.7384,3576.0
43.9055,3504.0
44.0726,3478.0
44.2397,3500.0
44.4068,3467.0
44.5739,3341.0
44.741,3572.0
44.9081,3516.0
45.0753,3498.0
45.2424,3539.0
45.4095,3595.0
45.5766,3445.0
45.7437,3507.0
45.9108,3458.0
46.0779,3481.0
46.245,3479.0
46.4122,3458.0
46.5793,3468.0
46.7464,3467.0
46.9135,3562.0
47.0806,3507.0
47.2477,3460.0
47.4148,3549.0
47.5819,3606.0
47.7491,3569.0
47.9162,3536.0
48.0833,3598.0
48.2504,3904.0
48.4175,4261.0
48.5846,4144.0
48.7517,3828.0
48.9189,3659.0
49.086,3616.0
49.2531,3598.0
49.4202,3479.0
49.5873,3435.0
49.7544,3495.0
49.9215,3542.0
50.0886,3492.0
50.2558,3433.0
50.4229,3463.0
50.59,3541.0
50.7571,3489.0
50.9242,3427.0
51.0913,3498.0
51.2584,3496.0
51.4255,3430.0
51.5927,3463.0
51.7598,3434.0
51.9269,3401.0
52.094,3429.0
52.2611,3458.0
52.4282,3432.0
52.5953,3540.0
52.7624,3517.0
52.9296,3462.0
53.0967,3526.0
53.2638,3431.0
53.4309,3545.0
53.598,3782.0
53.7651,3964.0
53.9322,4293.0
54.0993,4112.0
54.2665,3935.0
54.4336,3802.0
54.6007,3783.0
54.7678,3723.0
54.9349,3725.0
55.102,3687.0
55.2691,3760.0
55.4362,3771.0
55.6034,3606.0
55.7705,3571.0
55.9376,3544.0
56.1047,3501.0
56.2718,3415.0
56.4389,3439.0
56.606,3556.0
56.7731,3446.0
56.9403,3414.0
57.1074,3396.0
57.2745,3484.0
57.4416,3364.0
57.6087,3445.0
57.7758,3395.0
57.9429,3428.0
58.11,3387.0
58.2772,3573.0
58.4443,3448.0
58.6114,3445.0
58.7785,3531.0
58.9456,3570.0
59.1127,3438.0
59.2798,3421.0
59.447,3449.0
59.6141,3485.0
59.7812,3457.0
59.9483,3529.0
60.1154,3529.0
60.2825,3525.0
60.4496,3606.0
60.6167,3610.0
60.7839,3539.0
60.951,3554.0
61.1181,3570.0
61.2852,3460.0
61.4523,3578.0
61.6194,3540.0
61.7865,3573.0
61.9536,3452.0
62.1208,3497.0
62.2879,3357.0
62.455,3374.0
62.6221,3410.0
62.7892,3414.0
62.9563,3381.0
63.1234,3506.0
63.2905,3321.0
63.4577,3460.0
63.6248,3392.0
63.7919,3231.0
63.959,3395.0
64.1261,3351.0
64.2932,3362.0
64.4603,3429.0
64.6274,3446.0
64.7946,3462.0
64.9617,3396.0
65.1288,3366.0
65.2959,3429.0
65.463,3401.0
65.6301,3466.0
65.7972,3368.0
65.9643,3382.0
66.1315,3392.0
66.2986,3347.0
66.4657,3406.0
66.6328,3417.0
66.7999,3434.0
66.967,3336.0
67.1341,3326.0
67.3012,3391.0
67.4684,3382.0
67.6355,3320.0
67.8026,3327.0
67.9697,3348.0
68.1368,3445.0
68.3039,3406.0
68.471,3332.0
68.6381,3446.0
68.8053,3423.0
68.9724,3411.0
69.1395,3362.0
69.3066,3391.0
69.4737,3370.0
69.6408,3560.0
69.8079,3535.0
69.975,3569.0
69.9918,3415.0

File: 250205_20-70deg_40min_FeF3_as_received.csv
2Theta,Intensity
20.0084,7233.0
20.1755,7280.0
20.3426,7090.0
20.5097,7190.0
20.6768,7018.0
20.8439,7128.0
21.011,7101.0
21.1781,6937.0
21.3453,6841.0
21.5124,6869.0
21.6795,6652.0
21.8466,6638.0
22.0137,6573.0
22.1808,6602.0
22.3479,6523.0
22.515,6529.0
22.6822,6381.0
22.8493,6502.0
23.0164,6490.0
23.1835,6622.0
23.3506,6823.0
23.5177,8245.0
23.6848,16230.0
23.8519,22046.0
24.0191,7494.0
24.1862,6363.0
24.3533,6216.0
24.5204,6172.0
24.6875,6053.0
24.8546,6084.0
25.0217,5989.0
25.1888,6159.0
25.356,6082.0
25.5231,6023.0
25.6902,5923.0
25.8573,5912.0
26.0244,5941.0
26.1915,5708.0
26.3586,5916.0
26.5258,5832.0
26.6929,5882.0
26.86,5839.0
27.0271,5801.0
27.1942,5967.0
27.3613,5842.0
27.5284,5788.0
27.6955,5885.0
27.8627,5808.0
28.0298,5967.0
28.1969,5865.0
28.364,5797.0
28.5311,5756.0
28.6982,5719.0
28.8653,5847.0
29.0324,5816.0
29.1996,5654.0
29.3667,5613.0
29.5338,5616.0
29.7009,5594.0
29.868,5797.0
30.0351,5698.0
30.2022,5635.0
30.3693,5754.0
30.5365,5714.0
30.7036,5647.0
30.8707,5629.0
31.0378,5627.0
31.2049,5598.0
31.372,5583.0
31.5391,5549.0
31.7062,5525.0
31.8734,5492.0
32.0405,5572.0
32.2076,5405.0
32.3747,5467.0
32.5418,5612.0
32.7089,5532.0
32.876,5589.0
33.0431,5611.0
33.2103,5930.0
33.3774,8020.0
33.5445,6495.0
33.7116,5850.0
33.8787,5715.0
34.0458,5813.0
34.2129,5873.0
34.38,6592.0
34.5472,6067.0
34.7143,5653.0
34.8814,5406.0
35.0485,5632.0
35.2156,5355.0
35.3827,5365.0
35.5498,5485.0
35.7169,5519.0
35.8841,5504.0
36.0512,5440.0
36.2183,5496.0
36.3854,5531.0
36.5525,5473.0
36.7196,5520.0
36.8867,5418.0
37.0538,5557.0
37.221,5479.0
37.3881,5486.0
37.5552,5584.0
37.7223,5543.0
37.8894,5559.0
38.0565,5484.0
38.2236,5518.0
38.3908,5604.0
38.5579,5442.0
38.725,5433.0
38.8921,5555.0
39.0592,5624.0
39.2263,5494.0
39.3934,5489.0
39.5605,5609.0
39.7277,5735.0
39.8948,6038.0
40.0619,7240.0
40.229,6798.0
40.3961,5849.0
40.5632,5692.0
40.7303,5684.0
40.8974,5553.0
41.0646,5505.0
41.2317,5542.0
41.3988,5462.0
41.5659,5581.0
41.733,5600.0
41.9001,5572.0
42.0672,5557.0
42.2343,5677.0
42.4015,5527.0
42.5686,5606.0
42.7357,5598.0
42.9028,5593.0
43.0699,5555.0
43.237,5609.0
43.4041,5473.0
43.5712,5473.0
43.7384,5506.0
43.9055,5582.0
44.0726,5491.0
44.2397,5509.0
44.4068,5394.0
44.5739,5582.0
44.741,5653.0
44.9081,5669.0
45.0753,5561.0
45.2424,5531.0
45.4095,5581.0
45.5766,5475.0
45.7437,5619.0
45.9108,5586.0
46.0779,5580.0
46.245,5550.0
46.4122,5496.0
46.5793,5664.0
46.7464,5585.0
46.9135,5577.0
47.0806,5530.0
47.2477,5569.0
47.4148,5634.0
47.5819,5706.0
47.7491,5653.0
47.9162,5807.0
48.0833,5629.0
48.2504,5850.0
48.4175,6411.0
48.5846,7655.0
48.7517,9068.0
48.9189,7035.0
49.086,5791.0
49.2531,5641.0
49.4202,5713.0
49.5873,5672.0
49.7544,5751.0
49.9215,5622.0
50.0886,5694.0
50.2558,5515.0
50.4229,5580.0
50.59,5709.0
50.7571,5640.0
50.9242,5649.0
51.0913,5673.0
51.2584,5612.0
51.4255,5736.0
51.5927,5677.0
51.7598,5543.0
51.9269,5677.0
52.094,5693.0
52.2611,5787.0
52.4282,5669.0
52.5953,5778.0
52.7624,5712.0
52.9296,5739.0
53.0967,5694.0
53.2638,5788.0
53.4309,5903.0
53.598,5793.0
53.7651,5949.0
53.9322,6296.0
54.0993,7656.0
54.2665,9297.0
54.4336,7485.0
54.6007,6107.0
54.7678,6008.0
54.9349,5968.0
55.102,5976.0
55.2691,6345.0
55.4362,6649.0
55.6034,7040.0
55.7705,6887.0
55.9376,6168.0
56.1047,5964.0
56.2718,5842.0
56.4389,5861.0
56.606,5900.0
56.7731,5818.0
56.9403,5943.0
57.1074,5932.0
57.2745,5728.0
57.4416,5935.0
57.6087,5758.0
57.7758,5799.0
57.9429,5918.0
58.11,5829.0
58.2772,5792.0
58.4443,5876.0
58.6114,5939.0
58.7785,5955.0
58.9456,6078.0
59.1127,6223.0
59.2798,5910.0
59.447,5862.0
59.6141,6044.0
59.7812,6078.0
59.9483,5987.0
60.1154,5912.0
60.2825,5993.0
60.4496,6029.0
60.6167,5977.0
60.7839,6199.0
60.951,6492.0
61.1181,6700.0
61.2852,6384.0
61.4523,6343.0
61.6194,6514.0
61.7865,6488.0
61.9536,6100.0
62.1208,6022.0
62.2879,6035.0
62.455,6111.0
62.6221,5932.0
62.7892,5860.0
62.9563,5940.0
63.1234,5942.0
63.2905,5902.0
63.4577,5910.0
63.6248,5915.0
63.7919,5998.0
63.959,6024.0
64.1261,5997.0
64.2932,5863.0
64.4603,5975.0
64.6274,6064.0
64.7946,6078.0
64.9617,5942.0
65.1288,5929.0
65.2959,5954.0
65.463,5899.0
65.6301,5902.0
65.7972,6050.0
65.9643,5876.0
66.1315,6049.0
66.2986,6087.0
66.4657,5853.0
66.6328,6058.0
66.7999,5889.0
66.967,6138.0
67.1341,5987.0
67.3012,5883.0
67.4684,5842.0
67.6355,5888.0
67.8026,5957.0
67.9697,6015.0
68.1368,5968.0
68.3039,5909.0
68.471,5961.0
68.6381,6178.0
68.8053,6107.0
68.9724,6013.0
69.1395,6057.0
69.3066,6035.0
69.4737,6146.0
69.6408,6059.0
69.8079,6193.0
69.975,6288.0
69.9918,6366.0