Folder: herald_visualization/herald_visualization/XRD_Plotting/Figures/Li2FeS2

Note: readme.md
This package is designed for plotting the data in herald project.
mpr_to_csv is used for transforming raw biologic mpr files to human-readable csv files.

File: Li2FeS2.csv
2Theta (degrees),Intensity
14.5571,74.0964
27.0553,4.89814
29.3561,0.146789
30.8553,100.0
40.3452,72.1666
44.6773,1.43695
47.8013,42.553
50.2379,16.0028
53.0121,26.0666
55.7869,0.68085
57.0918,0.0362711
57.9831,14.0695
60.8984,3.6061
64.2871,16.2107
67.4939,2.24408
67.8565,4.37908
74.1363,9.02473
76.4687,0.430052
78.3535,11.1579
78.6128,1.96624
80.9054,9.38056
83.9402,14.9456
84.9511,2.72963
87.2125,2.12144
89.1341,6.69949