Folder: herald_visualization/herald_visualization/XRD_Plotting/Figures/LiFeF2

Note: readme.md
This package is designed for plotting the data in herald project.
mpr_to_csv is used for transforming raw biologic mpr files to human-readable csv files.

File: 250207-FeF2(LiF)-ball_milled_24h-20-70deg-40min.csv
2Theta,Intensity
20.0084,8814.0
20.1755,8647.0
20.3426,8488.0
20.5097,8471.0
20.6768,8158.0
20.8439,8119.0
21.011,8110.0
21.1781,7983.0
21.3453,7925.0
21.5124,7904.0
21.6795,7871.0
21.8466,7789.0
22.0137,7776.0
22.1808,7687.0
22.3479,7574.0
22.515,7525.0
22.6822,7333.0
22.8493,7468.0
23.0164,7433.0
23.1835,7563.0
23.3506,8155.0
23.5177,10295.0
23.6848,20725.0
23.8519,12272.0
24.0191,8145.0
24.1862,7515.0
24.3533,7155.0
24.5204,7138.0
24.6875,6875.0
24.8546,7064.0
25.0217,6732.0
25.1888,6873.0
25.356,6681.0
25.5231,6831.0
25.6902,6602.0
25.8573,6823.0
26.0244,6877.0
26.1915,6561.0
26.3586,6854.0
26.5258,6902.0
26.6929,7536.0
26.86,6922.0
27.0271,7004.0
27.1942,7016.0
27.3613,7160.0
27.5284,6769.0
27.6955,6507.0
27.8627,6651.0
28.0298,6616.0
28.1969,6559.0
28.364,6628.0
28.5311,6548.0
28.6982,6571.0
28.8653,6284.0
29.0324,6417.0
29.1996,6450.0
29.3667,6452.0
29.5338,6291.0
29.7009,6436.0
29.868,6447.0
30.0351,6423.0
30.2022,6309.0
30.3693,6337.0
30.5365,6474.0
30.7036,6253.0
30.8707,6232.0
31.0378,6214.0
31.2049,6304.0
31.372,6256.0
31.5391,6331.0
31.7062,6477.0
31.8734,6316.0
32.0405,6225.0
32.2076,6334.0
32.3747,6202.0
32.5418,6288.0
32.7089,6367.0
32.876,6595.0
33.0431,6866.0
33.2103,7088.0
33.3774,7554.0
33.5445,6841.0
33.7116,6497.0
33.8787,6378.0
34.0458,6427.0
34.2129,6573.0
34.38,6619.0
34.5472,6485.0
34.7143,6148.0
34.8814,6222.0
35.0485,6254.0
35.2156,6322.0
35.3827,6085.0
35.5498,6046.0
35.7169,6148.0
35.8841,6161.0
36.0512,6098.0
36.2183,6026.0
36.3854,6181.0
36.5525,6010.0
36.7196,6034.0
36.8867,6195.0
37.0538,6132.0
37.221,6141.0
37.3881,6187.0
37.5552,6193.0
37.7223,6277.0
37.8894,6155.0
38.0565,6187.0
38.2236,6368.0
38.3908,6383.0
38.5579,7345.0
38.725,6893.0
38.8921,6272.0
39.0592,6059.0
39.2263,6211.0
39.3934,6307.0
39.5605,6227.0
39.7277,6412.0
39.8948,6842.0
40.0619,7415.0
40.229,6768.0
40.3961,6291.0
40.5632,6318.0
40.7303,6155.0
40.8974,6315.0
41.0646,6067.0
41.2317,6087.0
41.3988,6164.0
41.5659,6044.0
41.733,6002.0
41.9001,5915.0
42.0672,6266.0
42.2343,6171.0
42.4015,6150.0
42.5686,6057.0
42.7357,6247.0
42.9028,6158.0
43.0699,6155.0
43.237,6176.0
43.4041,6082.0
43.5712,6144.0
43.7384,6132.0
43.9055,6024.0
44.0726,6109.0
44.2397,6194.0
44.4068,6254.0
44.5739,6316.0
44.741,6846.0
44.9081,7859.0
45.0753,6877.0
45.2424,6449.0
45.4095,6175.0
45.5766,6247.0
45.7437,6086.0
45.9108,6198.0
46.0779,6060.0
46.245,6122.0
46.4122,6222.0
46.5793,6093.0
46.7464,6185.0
46.9135,6119.0
47.0806,6156.0
47.2477,6144.0
47.4148,6139.0
47.5819,6284.0
47.7491,6188.0
47.9162,6294.0
48.0833,6449.0
48.2504,6615.0
48.4175,7054.0
48.5846,8381.0
48.7517,8078.0
48.9189,6807.0
49.086,6544.0
49.2531,6415.0
49.4202,6223.0
49.5873,6163.0
49.7544,6214.0
49.9215,6131.0
50.0886,6115.0
50.2558,6345.0
50.4229,6171.0
50.59,6234.0
50.7571,6149.0
50.9242,6273.0
51.0913,6221.0
51.2584,6554.0
51.4255,6645.0
51.5927,6437.0
51.7598,6244.0
51.9269,6304.0
52.094,6103.0
52.2611,6302.0
52.4282,6312.0
52.5953,6369.0
52.7624,6332.0
52.9296,6376.0
53.0967,6097.0
53.2638,6049.0
53.4309,6391.0
53.598,6470.0
53.7651,6457.0
53.9322,7088.0
54.0993,8122.0
54.2665,7940.0
54.4336,7063.0
54.6007,6720.0
54.7678,6552.0
54.9349,6599.0
55.102,6692.0
55.2691,6784.0
55.4362,7224.0
55.6034,7159.0
55.7705,6814.0
55.9376,6525.0
56.1047,6404.0
56.2718,6437.0
56.4389,6392.0
56.606,6357.0
56.7731,6281.0
56.9403,6326.0
57.1074,6109.0
57.2745,6258.0
57.4416,6199.0
57.6087,6181.0
57.7758,6280.0
57.9429,6302.0
58.11,6162.0
58.2772,6221.0
58.4443,6130.0
58.6114,6332.0
58.7785,6261.0
58.9456,6327.0
59.1127,6365.0
59.2798,6427.0
59.447,6361.0
59.6141,6210.0
59.7812,6226.0
59.9483,6251.0
60.1154,6365.0
60.2825,6088.0
60.4496,6284.0
60.6167,6457.0
60.7839,6446.0
60.951,6698.0
61.1181,6631.0
61.2852,6468.0
61.4523,6430.0
61.6194,6738.0
61.7865,6538.0
61.9536,6420.0
62.1208,6266.0
62.2879,6358.0
62.455,6345.0
62.6221,6315.0
62.7892,6363.0
62.9563,6351.0
63.1234,6268.0
63.2905,6270.0
63.4577,6176.0
63.6248,6060.0
63.7919,6254.0
63.959,6217.0
64.1261,6420.0
64.2932,6249.0
64.4603,6386.0
64.6274,6226.0
64.7946,6380.0
64.9617,6234.0
65.1288,6160.0
65.2959,6572.0
65.463,6641.0
65.6301,6563.0
65.7972,6371.0
65.9643,6373.0
66.1315,6392.0
66.2986,6203.0
66.4657,6078.0
66.6328,6145.0
66.7999,6199.0
66.967,6195.0
67.1341,6127.0
67.3012,6049.0
67.4684,6210.0
67.6355,6203.0
67.8026,6124.0
67.9697,6223.0
68.1368,6166.0
68.3039,6202.0
68.471,6237.0
68.6381,6122.0
68.8053,6224.0
68.9724,6250.0
69.1395,6262.0
69.3066,6336.0
69.4737,6092.0
69.6408,6418.0
69.8079,6368.0
69.975,6565.0
69.9918,6370.0

File: LiFeF3_761166.csv
2Theta (degrees),Intensity
20.4809,0.00333223
22.9887,50.9635
23.3329,100.0
31.8762,49.1835
32.1883,20.3062
34.0643,12.7333
34.2516,8.61624
37.4879,0.0604216
38.0321,2.76431
38.9265,18.2962
39.3317,20.0767
39.403,17.1805
40.2618,0.06254
41.6554,19.0401
41.7461,8.64708
46.9743,10.0884
47.7106,19.4839
49.048,0.0221006
51.3146,0.00256455
51.5869,24.1478
52.1033,20.3837
52.3509,22.5138
53.5677,0.413612
53.624,0.561832
53.8475,0.376066
54.5661,7.40369
55.063,7.80818
55.1544,7.16231
55.2364,4.68808
55.7658,8.49488
59.4094,8.52707
59.8451,7.75527
59.9846,9.11877
60.8521,11.7755
61.2128,23.5069
61.5439,0.0422488
62.5949,0.239426
63.4724,0.186984
63.5566,0.28778
64.4626,0.054232
64.7957,0.0514104
66.6239,3.81838
67.3433,2.13603
68.9897,2.1034
69.1762,5.30961
69.5848,2.34085
69.6745,3.21594
69.9537,1.86294
71.4724,0.108774
71.7213,2.26521
72.0267,0.100139
72.1639,0.691251
72.4694,0.225994
73.4271,0.325344
74.0693,0.648935
74.585,1.48192
74.679,0.399429
74.6942,0.747565
75.2084,1.36275
75.2485,0.0791653
75.3324,1.15339
75.7455,0.0340459
75.9469,0.084922
76.4304,2.81038
76.5314,3.10854
76.6555,3.04058
76.8867,2.78407
76.9674,0.0163055
77.5419,2.96612
77.7732,2.54128
78.8206,1.45085
79.9838,2.51764
80.0795,2.49641
81.1771,2.03461
81.2225,2.69664
81.3347,2.83289
83.4871,0.0236974
83.5804,4.12985
83.9863,0.06686
84.2139,0.0561755
84.6085,4.91703
84.7903,3.85223
85.7796,0.00154422
86.0324,1.36191
86.427,0.00606622
86.9965,2.40584
88.8279,2.21625
89.3306,0.0132784
89.5048,2.52398

File: LiFeF3_776080.csv
2Theta (degrees),Intensity
16.7441,1.79104
19.6153,23.337
20.3694,9.18709
20.5045,0.205397
22.1735,100.0
24.5114,0.182371
26.4827,0.865513
26.5883,0.0642082
28.4605,68.2023
32.0757,1.03132
32.7279,36.4525
33.8597,7.78163
35.2239,10.4934
35.4352,0.931527
35.7493,0.0124618
35.9908,0.517005
36.7761,0.0140264
37.4063,10.5009
38.4751,0.283193
38.4932,22.1635
39.7195,34.0505
39.8368,6.37387
39.9104,0.371183
39.9405,0.161906
41.3161,10.0019
41.4207,4.05837
41.7051,5.09772
42.61,2.86279
43.9331,0.0042565
44.2597,0.00500148
44.9703,0.00314066
45.2367,0.191988
45.7268,0.0536588
46.247,12.4485
46.393,1.26343
47.8053,3.58229
48.7191,0.0584522
48.8666,0.00178731
49.3693,0.00238489
50.06,0.0497824
50.2443,24.6907
51.2433,54.4478
51.336,20.0107
51.3998,1.82598
51.7999,0.75638
52.6449,2.00126
52.931,2.13518
54.53,2.81869
54.7614,1.44382
55.0392,0.0128165
55.2018,0.0517273
55.4742,1.47454
55.8436,0.0627241
56.0145,2.10422
56.2288,1.71188
56.2855,0.284253
56.2985,0.126913
56.5744,9.58227
56.7438,0.671775
56.8668,0.0269663
57.0254,2.38171
57.8218,0.194618
58.0969,0.712143
58.1228,0.0405339
58.7312,0.221029
58.8966,0.343179
59.1717,0.0849773
59.459,0.0136743
60.0781,1.16082
60.174,6.01306
61.211,0.0782534
61.4639,20.4818
62.2214,6.26438
62.253,0.00453726
62.3813,0.0207862
62.6472,11.1472
64.0738,9.96408
64.0774,7.99184
64.533,0.0689287
64.545,0.312016
64.6897,0.777627
65.2157,0.0444313
65.3384,7.56149
65.6336,5.64576
65.6765,1.88239
65.9404,0.0381684
66.2078,0.0191915
66.3653,1.62882
66.7456,0.137248
66.9299,0.00680342
67.0836,1.77004
67.207,3.52554
67.3394,0.176068
67.735,0.0025612
67.9208,1.19029
68.2622,0.934001
68.3903,0.902506
68.5931,0.136832
69.6905,0.0286674
70.2223,0.0305597
70.4636,0.0335059
71.1623,0.0218167
71.2392,0.280963
71.3032,0.0366676
71.9545,2.23944
72.1826,0.313095
72.7549,1.6265
72.8968,0.0267912
72.903,0.0257752
73.0106,0.0283095
73.1496,0.467736
73.3321,0.449977
73.8607,0.00332837
74.0921,0.289124
74.1038,0.999964
74.4775,1.46287
74.9177,0.0368219
74.9842,0.203098
75.033,0.227533
75.6,0.55711
75.7399,0.294378
75.9378,2.30721
76.3233,4.42061
76.3657,0.042415
76.8451,0.234273
76.8682,0.00660386
76.9986,1.86519
77.2971,2.9956
77.7978,0.0703831
77.8653,0.54334
78.2334,0.0484203
78.8111,0.204366
78.9547,0.76263
79.1109,0.0857954
79.2653,0.0336138
79.4692,0.176874
79.5766,0.58802
79.6382,0.0579172
79.6492,0.0682539
79.7227,1.18179
79.7821,0.137123
79.8828,1.33412
79.9847,0.175891
80.0216,0.10096
80.2659,1.27501
80.5138,0.00427028
80.6008,0.179847
81.1822,0.28119
81.3194,0.00788299
81.4294,0.00804375
81.7286,0.0140223
82.1097,0.0762981
82.443,0.11452
82.4883,4.22972
82.7397,0.0909898
82.7954,0.150587
82.8483,0.0934809
83.3909,1.03395
84.7867,1.74926
85.1155,0.00350046
85.1655,5.09321
85.4968,0.155632
85.5995,7.60861
85.9005,0.170664
86.0896,0.990904
86.167,1.4843
86.3083,0.106196
86.8114,0.407183
86.8254,1.68048
86.9419,2.72813
87.0643,0.0349514
87.2366,0.0769717
87.5891,3.29182
87.7307,0.00145386
87.897,0.931997
87.9667,3.12338
88.1378,0.00360189
88.2139,2.72831
88.6381,0.00458601
89.0451,0.0355628
89.4225,0.0350443
89.5473,0.00894615
89.7527,1.06999
89.9601,1.83317
89.98,0.0106702

File: LiFeF3_777522.csv
2Theta (degrees),Intensity
12.005,33.06
21.4062,100.0
24.1444,5.36628
28.8963,8.46899
30.071,39.3671
33.7206,18.0002
34.067,40.9258
35.7525,0.65429
36.5666,1.12291
37.8446,6.45583
38.3125,38.993
40.8826,8.20617
41.9034,4.79216
43.6088,4.5813
45.8005,18.9696
46.6035,4.30928
49.453,2.45189
49.9615,40.1827
52.0689,25.6691
52.1897,2.52031
52.9179,3.2505
55.5327,18.1124
56.2328,4.6621
56.3504,2.42757
58.4089,12.5155
59.8688,0.952114
60.7579,5.77695
62.5084,1.05898
62.9435,8.30321
63.0485,0.533766
63.1614,12.9832
64.0183,13.8839
64.1274,0.609193
64.8748,1.20476
65.9372,4.17098
66.0385,4.0636
66.985,1.33106
67.0917,6.79305
67.7191,0.704072
70.4031,0.402509
70.9121,0.572799
71.3216,2.89688
71.7279,1.55775
73.7455,1.74611
74.6459,0.502226
75.5442,0.606994
75.6456,1.389
75.7477,3.70661
76.9351,2.99273
77.037,0.618474
77.3274,0.738712
77.7217,1.36243
79.1037,2.59355
79.9839,0.997449
80.0804,2.75905
80.471,1.24338
80.868,0.486335
82.0351,10.7593
82.7146,1.67642
83.0105,1.46283
85.5284,1.48231
85.5294,2.81336
87.1709,0.784784
88.2277,1.94007
88.3256,2.02673
88.6128,1.33476
89.194,0.235037
89.2922,3.58113