Folder: herald_visualization/herald_visualization/XRD_Plotting/Figures/LiMnF2

Note: readme.md
This package is designed for plotting the data in herald project.
mpr_to_csv is used for transforming raw biologic mpr files to human-readable csv files.

File: MnF2.csv
2Theta (degrees),Intensity
25.8563,100.0
32.703,52.2132
36.8908,6.7629
37.6809,23.1061
41.4333,7.66177
50.1139,68.2818
53.1615,19.6766
55.5179,11.9235
60.0362,9.18713
60.5871,0.836796
62.2225,13.9169
63.8295,25.9344
66.9839,1.58952
68.5352,2.58669
69.5562,0.31222
71.5864,1.88671
76.0647,4.90375
78.5143,3.56515
80.4615,9.63889
81.427,1.39714
84.3176,4.73277
86.2386,6.38375
87.6728,8.08222