Folder: herald_visualization/herald_visualization/XRD_Plotting/Figures/MnF3

Note: readme.md
This package is designed for plotting the data in herald project.
mpr_to_csv is used for transforming raw biologic mpr files to human-readable csv files.

File: 250205_20-70deg_40min_MnF3_as_received.csv
2Theta,Intensity
20.0084,5683.0
20.1755,5465.0
20.3426,5478.0
20.5097,5269.0
20.6768,5128.0
20.8439,5217.0
21.011,5031.0
21.1781,5019.0
21.3453,4958.0
21.5124,4827.0
21.6795,4764.0
21.8466,4740.0
22.0137,4651.0
22.1808,4474.0
22.3479,4569.0
22.515,4402.0
22.6822,4283.0
22.8493,4191.0
23.0164,4310.0
23.1835,4298.0
23.3506,4223.0
23.5177,4329.0
23.6848,4675.0
23.8519,8073.0
24.0191,19169.0
24.1862,5297.0
24.3533,5359.0
24.5204,13011.0
24.6875,4465.0
24.8546,3926.0
25.0217,3982.0
25.1888,3837.0
25.356,3878.0
25.5231,4256.0
25.6902,4848.0
25.8573,4173.0
26.0244,3862.0
26.1915,3664.0
26.3586,3524.0
26.5258,3556.0
26.6929,3698.0
26.86,3593.0
27.0271,3474.0
27.1942,3459.0
27.3613,3352.0
27.5284,3403.0
27.6955,3418.0
27.8627,3428.0
28.0298,3320.0
28.1969,3395.0
28.364,3398.0
28.5311,3222.0
28.6982,3246.0
28.8653,3190.0
29.0324,3255.0
29.1996,3176.0
29.3667,3166.0
29.5338,3210.0
29.7009,3153.0
29.868,3133.0
30.0351,3090.0
30.2022,3121.0
30.3693,3040.0
30.5365,3107.0
30.7036,3117.0
30.8707,3025.0
31.0378,3020.0
31.2049,3112.0
31.372,3145.0
31.5391,3363.0
31.7062,2989.0
31.8734,2975.0
32.0405,2995.0
32.2076,2913.0
32.3747,2988.0
32.5418,3814.0
32.7089,4276.0
32.876,3018.0
33.0431,2950.0
33.2103,2919.0
33.3774,2904.0
33.5445,2883.0
33.7116,2971.0
33.8787,3523.0
34.0458,4625.0
34.2129,3097.0
34.38,2888.0
34.5472,2758.0
34.7143,2866.0
34.8814,2871.0
35.0485,3456.0
35.2156,3445.0
35.3827,2966.0
35.5498,2886.0
35.7169,3009.0
35.8841,2767.0
36.0512,2755.0
36.2183,2933.0
36.3854,2799.0
36.5525,2834.0
36.7196,2810.0
36.8867,2797.0
37.0538,2661.0
37.221,2746.0
37.3881,2810.0
37.5552,2594.0
37.7223,2663.0
37.8894,2728.0
38.0565,2631.0
38.2236,2629.0
38.3908,2721.0
38.5579,2555.0
38.725,2707.0
38.8921,2679.0
39.0592,2653.0
39.2263,2600.0
39.3934,2521.0
39.5605,2713.0
39.7277,3011.0
39.8948,4779.0
40.0619,3049.0
40.229,2798.0
40.3961,2688.0
40.5632,2688.0
40.7303,2840.0
40.8974,3096.0
41.0646,3614.0
41.2317,3591.0
41.3988,4264.0
41.5659,2983.0
41.733,2708.0
41.9001,2638.0
42.0672,2772.0
42.2343,3008.0
42.4015,2770.0
42.5686,2682.0
42.7357,2578.0
42.9028,2595.0
43.0699,2604.0
43.237,2575.0
43.4041,2604.0
43.5712,2723.0
43.7384,2993.0
43.9055,2741.0
44.0726,2530.0
44.2397,2552.0
44.4068,2595.0
44.5739,2617.0
44.741,2518.0
44.9081,2432.0
45.0753,2447.0
45.2424,2477.0
45.4095,2473.0
45.5766,2562.0
45.7437,2485.0
45.9108,2573.0
46.0779,2508.0
46.245,2564.0
46.4122,2475.0
46.5793,2476.0
46.7464,2449.0
46.9135,2554.0
47.0806,2540.0
47.2477,2464.0
47.4148,2402.0
47.5819,2567.0
47.7491,2534.0
47.9162,2532.0
48.0833,2509.0
48.2504,2601.0
48.4175,2555.0
48.5846,2550.0
48.7517,2656.0
48.9189,3167.0
49.086,5368.0
49.2531,3420.0
49.4202,2709.0
49.5873,2536.0
49.7544,2545.0
49.9215,2610.0
50.0886,2822.0
50.2558,3996.0
50.4229,2995.0
50.59,2605.0
50.7571,2526.0
50.9242,2451.0
51.0913,2475.0
51.2584,2518.0
51.4255,2564.0
51.5927,2593.0
51.7598,2502.0
51.9269,2592.0
52.094,2627.0
52.2611,2700.0
52.4282,2889.0
52.5953,2892.0
52.7624,2842.0
52.9296,2790.0
53.0967,3028.0
53.2638,4114.0
53.4309,3136.0
53.598,2651.0
53.7651,2580.0
53.9322,2500.0
54.0993,2570.0
54.2665,2618.0
54.4336,2575.0
54.6007,2841.0
54.7678,3988.0
54.9349,3757.0
55.102,2753.0
55.2691,2603.0
55.4362,2854.0
55.6034,3881.0
55.7705,3412.0
55.9376,2999.0
56.1047,2776.0
56.2718,3112.0
56.4389,2916.0
56.606,2710.0
56.7731,2507.0
56.9403,2718.0
57.1074,3151.0
57.2745,3342.0
57.4416,3034.0
57.6087,2708.0
57.7758,2538.0
57.9429,2589.0
58.11,2648.0
58.2772,2907.0
58.4443,2803.0
58.6114,2643.0
58.7785,2649.0
58.9456,2526.0
59.1127,2543.0
59.2798,2530.0
59.447,2559.0
59.6141,2550.0
59.7812,2683.0
59.9483,2664.0
60.1154,2622.0
60.2825,2584.0
60.4496,2762.0
60.6167,2849.0
60.7839,2633.0
60.951,2578.0
61.1181,2509.0
61.2852,2586.0
61.4523,2600.0
61.6194,2490.0
61.7865,2600.0
61.9536,2563.0
62.1208,2563.0
62.2879,2685.0
62.455,2684.0
62.6221,3182.0
62.7892,3070.0
62.9563,3264.0
63.1234,3232.0
63.2905,2891.0
63.4577,2844.0
63.6248,3276.0
63.7919,3142.0
63.959,2694.0
64.1261,2509.0
64.2932,2541.0
64.4603,2452.0
64.6274,2532.0
64.7946,2589.0
64.9617,2618.0
65.1288,2627.0
65.2959,2471.0
65.463,2621.0
65.6301,2521.0
65.7972,2572.0
65.9643,2578.0
66.1315,2583.0
66.2986,2656.0
66.4657,2620.0
66.6328,2569.0
66.7999,2553.0
66.967,2527.0
67.1341,2495.0
67.3012,2493.0
67.4684,2531.0
67.6355,2643.0
67.8026,2545.0
67.9697,2500.0
68.1368,2516.0
68.3039,2756.0
68.471,2736.0
68.6381,2612.0
68.8053,2518.0
68.9724,2537.0
69.1395,2555.0
69.3066,2498.0
69.4737,2589.0
69.6408,2540.0
69.8079,2565.0
69.975,2630.0
69.9918,2521.0