Folder: herald_visualization/herald_visualization/Delia_Scripts/CoF3/CoF3_1to1_KS6Lgraphite/RR_ASC_0mins_CoF3

Note: readme.md
This package is designed for plotting the data in herald project.
mpr_to_csv is used for transforming raw biologic mpr files to human-readable csv files.

File: Differences_240827-CoF3_1to1_KS6Lgraphite-0min_milled-20-70deg_40min.csv
2Theta,Intensity
20.0084,0
20.1784,36.7122
20.3484,44.964
20.5184,134.243
20.6884,37.8968
20.8584,51.4424
21.0284,142.358
21.1984,-9.00227
21.3684,-5.02764
21.5384,-72.1024
21.7084,-20.1879
21.8784,-6.59009
22.0484,140.477
22.2184,-41.139
22.3884,-97.209
22.5584,75.2738
22.7284,-231.723
22.8984,86.9178
23.0684,-225.951
23.2384,-82.013
23.4084,-198.06
23.5784,-177
23.7484,-143.833
23.9184,12.8343
24.0884,-86.8812
24.2584,414.649
24.4284,-529.206
24.5984,-698.64
24.7684,-112.86
24.9384,-288.518
25.1084,-125.778
25.2784,-57.6493
25.4484,-1.00417
25.6184,58.9489
25.7884,191.213
25.9584,-37.7147
26.1284,-64.956
26.2984,4.49102
26.4684,-30.5439
26.6384,-54.9797
26.8084,165.742
26.9784,37.4851
27.1484,84.3409
27.3184,90.9001
27.4884,-7.75837
27.6584,66.9215
27.8284,92.7483
27.9984,117.454
28.1684,187.854
28.3384,-76.5788
28.5084,100.483
28.6784,-64.4277
28.8484,185.805
29.0184,-50.1818
29.1884,88.2982
29.3584,125.497
29.5284,46.5155
29.6984,-1.50346
29.8684,157.929
30.0384,45.6217
30.2084,55.6963
30.3784,-15.1228
30.5484,25.2
30.7184,15.1929
30.8884,116.779
31.0584,129.02
31.2284,124.257
31.3984,73.0513
31.5684,186.56
31.7384,76.7685
31.9084,189.905
32.0784,79.1273
32.2484,53.437
32.4184,30.7952
32.5884,136.832
32.7584,174.112
32.9284,-76.0427
33.0984,50.7762
33.2684,130.76
33.4384,11.7405
33.6084,-28.0273
33.7784,135.797
33.9484,42.7151
34.1184,60.9608
34.2884,214.637
34.4584,74.4759
34.6284,230.881
34.7984,-24.8899
34.9684,58.0492
35.1384,66.2555
35.3084,135.136
35.4784,92.3335
35.6484,-132.138
35.8184,-19.048
35.9884,107.318
36.1584,-27.968
36.3284,-73.9394
36.4984,-13.0776
36.6684,150.322
36.8384,-63.7621
37.0084,55.6613
37.1784,111.019
37.3484,57.7575
37.5184,61.7133
37.6884,33.4352
37.8584,117.781
38.0284,107.267
38.1984,51.7468
38.3684,118.486
38.5384,141.718
38.7084,78.1838
38.8784,212.824
39.0484,89.0542
39.2184,99.4463
39.3884,74.6465
39.5584,5.88451
39.7284,-35.2097
39.8984,7.01003
40.0684,24.9838
40.2384,-0.68496
40.4084,84.3126
40.5784,157.303
40.7484,137.967
40.9184,78.8259
41.0884,133.184
41.2584,-73.3933
41.4284,93.2571
41.5984,173.367
41.7684,33.5827
41.9384,39.6127
42.1084,65.4237
42.2784,12.4098
42.4484,-2.61433
42.6184,-125.622
42.7884,59.2484
42.9584,87.8332
43.1284,152.848
43.2984,131.328
43.4684,63.8381
43.6384,99.0923
43.8084,-1.46432
43.9784,-99.132
44.1484,1.63655
44.3184,-55.414
44.4884,111.023
44.6584,180.845
44.8284,45.9652
44.9984,85.637
45.1684,133.304
45.3384,5.66036
45.5084,128.805
45.6784,262.21
45.8484,35.2304
46.0184,117.312
46.1884,57.9465
46.3584,26.2415
46.5284,87.4495
46.6984,-13.279
46.8684,-13.6607
47.0384,153.541
47.2084,143.838
47.3784,97.4932
47.5484,90.2377
47.7184,6.70126
47.8884,-113.011
48.0584,68.3261
48.2284,16.426
48.3984,54.7101
48.5684,124.484
48.7384,113.796
48.9084,-56.2512
49.0784,7.664
49.2484,182.115
49.4184,90.8176
49.5884,145.242
49.7584,156.556
49.9284,164.501
50.0984,-191.48
50.2684,53.6087
50.4384,167.965
50.6084,29.3449
50.7784,100.543
50.9484,63.4306
51.1184,27.4691
51.2884,78.9439
51.4584,201.262
51.6284,5.25048
51.7984,119.181
51.9684,-44.7912
52.1384,179.471
52.3084,61.979
52.4784,107.578
52.6484,-32.9824
52.8184,95.7957
52.9884,41.6962
53.1584,66.6586
53.3284,9.07771
53.4984,273.95
53.6684,148.101
53.8384,-7.15273
54.0084,81.8303
54.1784,-28.0786
54.3484,164.167
54.5184,-5.69033
54.6884,94.8806
54.8584,101.678
55.0284,73.2675
55.1984,283.659
55.3684,-381.613
55.5384,-64.6614
55.7084,341.439
55.8784,83.8688
56.0484,131.456
56.2184,21.0911
56.3884,-69.3459
56.5584,112.228
56.7284,4.91102
56.8984,6.96017
57.0684,147.422
57.2384,9.15513
57.4084,67.4192
57.5784,-324.103
57.7484,-43.1207
57.9184,218.873
58.0884,135.014
58.2584,131.648
58.4284,-64.5861
58.5984,9.90278
58.7684,92.387
58.9384,9.4498
59.1084,34.9062
59.2784,78.6448
59.4484,42.5026
59.6184,55.6874
59.7884,-5.93528
59.9584,165.567
60.1284,-16.9693
60.2984,96.6595
60.4684,127.632
60.6384,59.421
60.8084,57.1894
60.9784,-2.19778
61.1484,32.6708
61.3184,116.692
61.4884,114.444
61.6584,-3.31107
61.8284,59.7472
61.9984,-17.5426
62.1684,68.5817
62.3384,68.5251
62.5084,126.778
62.6784,118.099
62.8484,111.225
63.0184,-23.675
63.1884,67.5657
63.3584,236.775
63.5284,82.0326
63.6984,67.0564
63.8684,118.979
64.0384,-251.427
64.2084,47.6866
64.3784,127.25
64.5484,89.2421
64.7184,34.5689
64.8884,91.5128
65.0584,140.77
65.2284,-33.6258
65.3984,126.198
65.5684,-58.4138
65.7384,47.6166
65.9084,205.063
66.0784,104.489
66.2484,16.9548
66.4184,144.333
66.5884,161.367
66.7584,115.054
66.9284,146.945
67.0984,182.846
67.2684,90.4094
67.4384,117.422
67.6084,35.8753
67.7784,45.8203
67.9484,191.719
68.1184,254.5
68.2884,36.2302
68.4584,73.9739
68.6284,114.41
68.7984,118.269
68.9684,62.8519
69.1384,105.351
69.3084,-0.864348
69.4784,155.665
69.6484,159.66
69.8184,102.28
69.9884,-0.0483773