Folder: herald_visualization/herald_visualization/Delia_Scripts/CoF3/CoF3_1to1_KS6Lgraphite/RR_ASC_20mins_CoF3

Note: readme.md
This package is designed for plotting the data in herald project.
mpr_to_csv is used for transforming raw biologic mpr files to human-readable csv files.

File: Re-analyzed_250227_scanned_240925-CoF3_1to1_KS6Lgraphite-20min_milled-20-70deg_40min.csv
2Theta,Intensity
20.0254,16447.5
20.1954,16338.1
20.3654,16465.6
20.5354,16199
20.7054,16212.5
20.8754,16071.3
21.0454,15904.8
21.2154,16028.7
21.3854,15700.1
21.5554,15738.2
21.7254,15610.6
21.8954,15611.3
22.0654,15388.2
22.2354,15034.1
22.4054,15117.7
22.5754,15139.6
22.7454,15064.8
22.9154,15086.1
23.0854,14850.9
23.2554,14792.3
23.4254,14922.9
23.5954,14988.4
23.7654,15099.1
23.9354,15396.6
24.1054,16362.2
24.2754,18508.3
24.4454,21006
24.6154,18549.8
24.7854,16180.3
24.9554,15419.9
25.1254,14702.5
25.2954,14661.9
25.4654,14658.6
25.6354,14465.8
25.8054,14727.3
25.9754,14461.9
26.1454,14750.7
26.3154,14665
26.4854,14666
26.6554,14765
26.8254,14667.1
26.9954,14628
27.1654,14318.8
27.3354,14232
27.5054,14047.1
27.6754,13963.2
27.8454,14064.2
28.0154,14115.1
28.1854,13947.5
28.3554,13848.1
28.5254,13790.2
28.6954,13839
28.8654,13794.9
29.0354,13836.1
29.2054,13670.2
29.3754,13678.4
29.5454,13556.9
29.7154,13625.6
29.8854,13613.8
30.0554,13673.1
30.2254,13610.4
30.3954,13605.1
30.5654,13482.7
30.7354,13587.5
30.9054,13520.8
31.0754,13465.2
31.2454,13476.5
31.4154,13434
31.5854,13196.9
31.7554,13363.3
31.9254,13229.4
32.0954,13174.6
32.2654,13364.6
32.4354,13272
32.6054,13433.6
32.7754,13196.9
32.9454,13276.6
33.1154,13418.1
33.2854,13358.2
33.4554,13214.7
33.6254,13466.9
33.7954,13623.5
33.9654,14066.3
34.1354,13769.9
34.3054,13748.3
34.4754,13262.3
34.6454,13337.9
34.8154,13206.4
34.9854,13257.7
35.1554,13294.8
35.3254,13290.1
35.4954,13238.7
35.6654,13369.8
35.8354,13395.5
36.0054,13091.8
36.1754,13092.3
36.3454,12952.9
36.5154,12960
36.6854,12968.1
36.8554,13154.6
37.0254,12891.2
37.1954,12808.1
37.3654,12851
37.5354,12923.6
37.7054,12883.8
37.8754,12842.8
38.0454,12863.4
38.2154,12882.3
38.3854,12802.4
38.5554,12927.9
38.7254,12814.1
38.8954,12925.3
39.0654,12847.8
39.2354,12780.6
39.4054,12825.6
39.5754,12700.3
39.7454,12789.3
39.9154,12795
40.0854,12656.4
40.2554,12864.4
40.4254,12867.8
40.5954,12986.4
40.7654,12974.2
40.9354,13086.8
41.1054,13176.1
41.2754,13316.7
41.4454,13296.6
41.6154,13133.9
41.7854,13142.2
41.9554,12778.6
42.1254,12862.1
42.2954,12836.3
42.4654,12682.7
42.6354,12755.6
42.8054,12687.4
42.9754,12616.8
43.1454,12956.3
43.3154,12872.7
43.4854,13327.4
43.6554,13770.1
43.8254,13101.5
43.9954,12812.7
44.1654,12568.3
44.3354,12658.7
44.5054,12940.7
44.6754,12723
44.8454,12402.3
45.0154,12812.3
45.1854,12827.4
45.3554,12647.6
45.5254,12712.6
45.6954,12468.6
45.8654,12465.7
46.0354,12584.5
46.2054,12534.7
46.3754,12486.6
46.5454,12643.2
46.7154,12687.4
46.8854,12481.1
47.0554,12240.7
47.2254,12476.4
47.3954,12664
47.5654,12555
47.7354,12529.9
47.9054,12391.9
48.0754,12361.3
48.2454,12493.4
48.4154,12580.2
48.5854,12511.1
48.7554,12510.2
48.9254,12562.9
49.0954,12501.4
49.2654,12552.8
49.4354,12775.1
49.6054,12538.7
49.7754,12870.5
49.9454,13157.9
50.1154,13346.3
50.2854,13197.8
50.4554,13021.6
50.6254,12711.5
50.7954,12921.4
50.9654,12703
51.1354,12660.7
51.3054,12573
51.4754,12461.5
51.6454,12502.2
51.8154,12304.7
51.9854,12448.4
52.1554,12648.3
52.3254,12651.6
52.4954,12411.6
52.6654,12471.4
52.8354,12386.3
53.0054,12374.7
53.1754,12318.1
53.3454,12468.9
53.5154,12412.8
53.6854,12411.7
53.8554,12450.4
54.0254,12490
54.1954,12334.8
54.3654,12606.4
54.5354,12429.6
54.7054,12556.9
54.8754,12826.2
55.0454,12935.4
55.2154,13180.5
55.3854,13105
55.5554,13139.3
55.7254,12982.9
55.8954,12642.6
56.0654,12721
56.2354,12659.7
56.4054,12487.8
56.5754,12607.1
56.7454,12535
56.9154,12681.5
57.0854,12490
57.2554,12563.5
57.4254,12610
57.5954,12822
57.7654,12741.8
57.9354,12625.4
58.1054,12556.7
58.2754,12442.8
58.4454,12366
58.6154,12467.4
58.7854,12475.1
58.9554,12319.2
59.1254,12388.9
59.2954,12400.9
59.4654,12323
59.6354,12548.8
59.8054,12389.4
59.9754,12283.5
60.1454,12293.6
60.3154,12061.6
60.4854,12333.1
60.6554,12274.1
60.8254,12358.1
60.9954,12497.2
61.1654,12328.7
61.3354,12127.8
61.5054,12388.4
61.6754,12364.3
61.8454,12246.2
62.0154,12281.8
62.1854,12443.5
62.3554,12407.9
62.5254,12230.6
62.6954,12380.6
62.8654,12530.8
63.0354,12690.1
63.2054,12479.1
63.3754,12455.5
63.5454,12503
63.7154,12454.7
63.8854,12382.8
64.0554,12474.2
64.2254,12275.6
64.3954,12574.1
64.5654,12338.2
64.7354,12280.8
64.9054,12428.4
65.0754,12182.7
65.2454,12394.7
65.4154,12292.1
65.5854,12245.5
65.7554,12198.9
65.9254,12125.6
66.0954,12102
66.2654,12427.9
66.4354,12144.7
66.6054,12338.9
66.7754,12222.7
66.9454,12296.6
67.1154,12257.4
67.2854,12175.3
67.4554,12317.4
67.6254,12224.9
67.7954,12192.1
67.9654,12143.5
68.1354,12240.9
68.3054,12148.5
68.4754,12049.8
68.6454,12233.2
68.8154,12172
68.9854,12253.8
69.1554,12060.1
69.3254,12133.8
69.4954,12165.5
69.6654,12164.9
69.8354,12188.2
69.9884,12141.1