Folder: herald_visualization/herald_visualization/Delia_Scripts/CoF3/CoF3_1to1_KS6Lgraphite/updated_analysis_and_exports

Note: readme.md
This package is designed for plotting the data in herald project.
mpr_to_csv is used for transforming raw biologic mpr files to human-readable csv files.

File: CoF3-20min-fit-data.csv
"No.","Pos. [°2θ]","Q [1/Å]","Icalc [cts]","Iback [cts]","ESD","D spacings","CT [s]","Intensity [Counts]"
"1","20.0084","1.4170","16696.5","16689","129.1859","4.4341","99.6950","16689"
"26","20.4334","1.4468","16308.8","16299.6","127.4975","4.3429","99.6950","16255.6"
"51","20.8584","1.4765","15998.2","15986.2","126.4584","4.2553","99.6950","15991.7"
"76","21.2834","1.5063","15738.5","15723.2","125.7178","4.1713","99.6950","15805"
"101","21.7084","1.5360","15544.6","15524.3","125.1033","4.0906","99.6950","15650.8"
"126","22.1334","1.5657","15353.3","15325","124.2212","4.0130","99.6950","15430.9"
"151","22.5584","1.5954","15175.1","15133.2","123.7430","3.9383","99.6950","15312.3"
"176","22.9834","1.6250","15003.7","14934.9","122.1860","3.8665","99.6950","14929.4"
"201","23.4084","1.6547","14900.6","14767.4","121.9021","3.7972","99.6950","14860.1"
"226","23.8334","1.6843","15129","14762.6","123.3097","3.7305","99.6950","15205.3"
"251","24.2584","1.7139","18180.7","14739","134.8417","3.6661","99.6950","18182.3"
"276","24.6834","1.7434","17526.8","14699.4","131.8444","3.6039","99.6950","17382.9"
"301","25.1084","1.7730","14977.6","14649.6","120.9717","3.5438","99.6950","14634.1"
"326","25.5334","1.8025","14723.7","14585.3","120.7925","3.4858","99.6950","14590.8"
"351","25.9584","1.8320","14622.7","14508.6","120.5080","3.4297","99.6950","14522.2"
"376","26.3834","1.8615","14762.2","14433.6","122.0828","3.3754","99.6950","14904.2"
"401","26.8084","1.8909","14892.3","14337.5","121.9654","3.3228","99.6950","14875.6"
"426","27.2334","1.9203","14307.1","14225.5","119.1533","3.2720","99.6950","14197.5"
"451","27.6584","1.9497","14137.6","14104.6","119.3409","3.2226","99.6950","14242.3"
"476","28.0834","1.9791","13989","13968.5","118.2911","3.1748","99.6950","13992.8"
"501","28.5084","2.0084","13870.9","13856.3","117.1248","3.1284","99.6950","13718.2"
"526","28.9334","2.0377","13754.1","13742.7","117.1999","3.0835","99.6950","13735.8"
"551","29.3584","2.0670","13637.1","13634.2","117.0933","3.0398","99.6950","13710.8"
"576","29.7834","2.0962","13576.4","13572.8","117.2415","2.9974","99.6950","13745.6"
"601","30.2084","2.1255","13518.4","13514.9","115.9580","2.9562","99.6950","13446.3"
"626","30.6334","2.1547","13451","13447.7","115.4195","2.9161","99.6950","13321.6"
"651","31.0584","2.1838","13378.7","13374.9","116.2330","2.8772","99.6950","13510.1"
"676","31.4834","2.2129","13328.5","13323.1","115.2904","2.8393","99.6950","13291.9"
"701","31.9084","2.2421","13287.3","13280.1","115.6415","2.8024","99.6950","13373"
"726","32.3334","2.2711","13251.3","13240.9","114.9210","2.7666","99.6950","13206.8"
"751","32.7584","2.3002","13262.2","13244.8","115.8855","2.7316","99.6950","13429.5"
"776","33.1834","2.3292","13280.5","13243.6","115.3682","2.6976","99.6950","13309.8"
"801","33.6084","2.3581","13427.8","13244.1","115.9961","2.6645","99.6950","13455.1"
"826","34.0334","2.3871","14091.4","13225.9","118.1856","2.6322","99.6950","13967.8"
"851","34.4584","2.4160","13435","13198.3","115.9195","2.6007","99.6950","13437.3"
"876","34.8834","2.4449","13297.3","13152.1","115.3747","2.5699","99.6950","13311.3"
"901","35.3084","2.4737","13223.1","13106.7","114.4498","2.5400","99.6950","13098.8"
"926","35.7334","2.5025","13386.7","13058.8","115.0312","2.5107","99.6950","13232.2"
"951","36.1584","2.5313","13045.4","12999.5","115.2841","2.4822","99.6950","13290.4"
"976","36.5834","2.5601","12945","12928.8","113.9737","2.4543","99.6950","12990"
"1001","37.0084","2.5888","12873.7","12862","113.9424","2.4271","99.6950","12982.9"
"1026","37.4334","2.6174","12815.8","12802.1","113.4219","2.4005","99.6950","12864.5"
"1051","37.8584","2.6461","12765.6","12735.8","112.8555","2.3745","99.6950","12736.4"
"1076","38.2834","2.6747","12775.9","12761","113.8010","2.3492","99.6950","12950.7"
"1101","38.7084","2.7032","12795.1","12784.8","113.9127","2.3243","99.6950","12976.1"
"1126","39.1334","2.7317","12835.5","12812.7","113.4894","2.3001","99.6950","12879.8"
"1151","39.5584","2.7602","12913","12824.3","112.5807","2.2763","99.6950","12674.4"
"1176","39.9834","2.7887","12875","12827.6","113.2335","2.2531","99.6950","12821.8"
"1201","40.4084","2.8171","12868.8","12829.7","113.2524","2.2304","99.6950","12826.1"
"1226","40.8334","2.8455","12984.2","12826.8","113.7798","2.2081","99.6950","12945.8"
"1251","41.2584","2.8738","13730.1","12815.9","115.8696","2.1864","99.6950","13425.8"
"1276","41.6834","2.9021","13007.9","12791","114.7518","2.1651","99.6950","13168"
"1301","42.1084","2.9303","12806.5","12744.7","113.4690","2.1442","99.6950","12875.2"
"1326","42.5334","2.9586","12754.7","12711.1","112.8975","2.1237","99.6950","12745.9"
"1351","42.9584","2.9867","12700.1","12677.5","112.6093","2.1037","99.6950","12680.9"
"1376","43.3834","3.0149","12720.9","12674.4","114.0615","2.0841","99.6950","13010"
"1401","43.8084","3.0429","12755.9","12651.1","114.8000","2.0648","99.6950","13179"
"1426","44.2334","3.0710","12629.1","12614.4","112.6733","2.0460","99.6950","12695.3"
"1451","44.6584","3.0990","12564.5","12558.5","112.6992","2.0275","99.6950","12701.1"
"1476","45.0834","3.1270","12484.6","12480.9","112.6161","2.0094","99.6950","12682.4"
"1501","45.5084","3.1549","12456.3","12453.8","112.3774","1.9916","99.6950","12628.7"
"1526","45.9334","3.1828","12453.9","12451.8","111.0616","1.9741","99.6950","12334.7"
"1551","46.3584","3.2106","12435.1","12432.8","111.5468","1.9570","99.6950","12442.7"
"1576","46.7834","3.2384","12407.4","12404.5","111.4523","1.9402","99.6950","12421.6"
"1601","47.2084","3.2661","12388.6","12385","111.8872","1.9237","99.6950","12518.8"
"1626","47.6334","3.2938","12400","12395","112.6547","1.9076","99.6950","12691.1"
"1651","48.0584","3.3215","12408.5","12398.7","111.5670","1.8917","99.6950","12447.2"
"1676","48.4834","3.3491","12452.9","12433.6","112.4461","1.8761","99.6950","12644.1"
"1701","48.9084","3.3766","12476.4","12458","111.6023","1.8608","99.6950","12455.1"
"1726","49.3334","3.4042","12516.2","12474.6","111.8928","1.8457","99.6950","12520"
"1751","49.7584","3.4316","12803.5","12511.7","113.4112","1.8310","99.6950","12862.1"
"1776","50.1834","3.4590","13265.4","12529.8","115.0236","1.8165","99.6950","13230.4"
"1801","50.6084","3.4864","12624","12535.2","113.1818","1.8022","99.6950","12810.1"
"1826","51.0334","3.5137","12554.3","12522.6","112.2780","1.7882","99.6950","12606.4"
"1851","51.4584","3.5410","12515.9","12489.2","111.9539","1.7744","99.6950","12533.7"
"1876","51.8834","3.5682","12545.5","12463.6","111.8177","1.7609","99.6950","12503.2"
"1901","52.3084","3.5954","12634.3","12436.4","112.0794","1.7475","99.6950","12561.8"
"1926","52.7334","3.6226","12449.1","12395.4","111.0478","1.7345","99.6950","12331.6"
"1951","53.1584","3.6496","12366.6","12346.6","111.9545","1.7216","99.6950","12533.8"
"1976","53.5834","3.6767","12320.9","12301.9","111.8845","1.7089","99.6950","12518.2"
"2001","54.0084","3.7036","12332.7","12304.4","111.5616","1.6965","99.6950","12446"
"2026","54.4334","3.7306","12464.3","12383","111.4114","1.6842","99.6950","12412.5"
"2051","54.8584","3.7575","12627","12439.8","113.3275","1.6722","99.6950","12843.1"
"2076","55.2834","3.7843","13476.7","12475.7","114.5673","1.6603","99.6950","13125.7"
"2101","55.7084","3.8110","12751.3","12498.5","113.7820","1.6487","99.6950","12946.3"
"2126","56.1334","3.8378","12637.6","12502.7","112.7390","1.6372","99.6950","12710.1"
"2151","56.5584","3.8644","12545","12486.3","111.7044","1.6259","99.6950","12477.9"
"2176","56.9834","3.8911","12497.7","12451.1","111.1813","1.6148","99.6950","12361.3"
"2201","57.4084","3.9176","12726.3","12432.8","112.0298","1.6038","99.6950","12550.7"
"2226","57.8334","3.9441","12659.4","12396.7","112.2652","1.5931","99.6950","12603.5"
"2251","58.2584","3.9706","12388.5","12349.3","111.3729","1.5824","99.6950","12403.9"
"2276","58.6834","3.9970","12303.9","12286.1","110.7611","1.5720","99.6950","12268"
"2301","59.1084","4.0233","12246.1","12227.8","111.5635","1.5617","99.6950","12446.4"
"2326","59.5334","4.0496","12333.4","12243.7","111.6187","1.5516","99.6950","12458.7"
"2351","59.9584","4.0758","12336.4","12251.2","111.7377","1.5416","99.6950","12485.3"
"2376","60.3834","4.1020","12258.9","12242.1","111.0360","1.5317","99.6950","12329"
"2401","60.8084","4.1281","12234.2","12225.4","111.2429","1.5220","99.6950","12375"
"2426","61.2334","4.1542","12212.3","12200.3","110.7515","1.5125","99.6950","12265.9"
"2451","61.6584","4.1802","12281.8","12248.8","110.5944","1.5031","99.6950","12231.1"
"2476","62.0834","4.2062","12328.7","12305.7","110.5314","1.4938","99.6950","12217.2"
"2501","62.5084","4.2320","12388.3","12344.4","110.9045","1.4847","99.6950","12299.8"
"2526","62.9334","4.2579","12603.6","12366.4","111.7711","1.4757","99.6950","12492.8"
"2551","63.3584","4.2837","12452.3","12378.8","111.6874","1.4668","99.6950","12474.1"
"2576","63.7834","4.3094","12541.9","12369.3","112.3695","1.4580","99.6950","12626.9"
"2601","64.2084","4.3350","12550.2","12343.2","111.5700","1.4494","99.6950","12447.9"
"2626","64.6334","4.3606","12326.2","12298.8","111.2194","1.4409","99.6950","12369.7"
"2651","65.0584","4.3862","12258.2","12246.1","110.7478","1.4325","99.6950","12265.1"
"2676","65.4834","4.4116","12217.7","12206.7","111.5233","1.4242","99.6950","12437.4"
"2701","65.9084","4.4370","12194.4","12164.4","110.3441","1.4161","99.6950","12175.8"
"2726","66.3334","4.4624","12267.6","12175.8","111.1581","1.4080","99.6950","12356.1"
"2751","66.7584","4.4877","12272.7","12181.3","110.7917","1.4001","99.6950","12274.8"
"2776","67.1834","4.5129","12191.8","12168.8","110.0269","1.3923","99.6950","12105.9"
"2801","67.6084","4.5381","12142.5","12136.6","110.4012","1.3845","99.6950","12188.4"
"2826","68.0334","4.5632","12099.3","12096.1","110.8718","1.3769","99.6950","12292.6"
"2851","68.4584","4.5882","12048.3","12046.1","109.5638","1.3694","99.6950","12004.2"
"2876","68.8834","4.6132","12089.1","12087.6","110.0188","1.3620","99.6950","12104.1"
"2901","69.3084","4.6381","12124.6","12121","110.5161","1.3547","99.6950","12213.8"
"2926","69.7334","4.6630","12140.5","12136.1","109.7240","1.3475","99.6950","12039.4"
"2941","69.9884","4.6779","12142.8","12140.8","110.1867","1.3432","99.6950","12141.1"