Folder: herald_visualization/herald_visualization/XRD_Plotting/Data

Note: readme.md
This package is designed for plotting the data in herald project.
mpr_to_csv is used for transforming raw biologic mpr files to human-readable csv files.

File: 241216-MnF3-ball_milled_24h-20-70deg-40min.csv
2Theta,Intensity
20.0084,4189.0
20.1755,4170.0
20.3426,4173.0
20.5097,3953.0
20.6768,3962.0
20.8439,3826.0
21.011,3916.0
21.1781,3692.0
21.3453,3719.0
21.5124,3689.0
21.6795,3526.0
21.8466,3551.0
22.0137,3286.0
22.1808,3400.0
22.3479,3185.0
22.515,3433.0
22.6822,3181.0
22.8493,3418.0
23.0164,3275.0
23.1835,3358.0
23.3506,3615.0
23.5177,4327.0
23.6848,5704.0
23.8519,6631.0
24.0191,5476.0
24.1862,4987.0
24.3533,4413.0
24.5204,3415.0
24.6875,3116.0
24.8546,2986.0
25.0217,2927.0
25.1888,2886.0
25.356,2621.0
25.5231,2735.0
25.6902,2739.0
25.8573,2712.0
26.0244,2649.0
26.1915,2549.0
26.3586,2621.0
26.5258,2601.0
26.6929,2578.0
26.86,2629.0
27.0271,2543.0
27.1942,2377.0
27.3613,2571.0
27.5284,2455.0
27.6955,2472.0
27.8627,2382.0
28.0298,2491.0
28.1969,2358.0
28.364,2316.0
28.5311,2346.0
28.6982,2301.0
28.8653,2343.0
29.0324,2320.0
29.1996,2237.0
29.3667,2310.0
29.5338,2229.0
29.7009,2148.0
29.868,2205.0
30.0351,2182.0
30.2022,2166.0
30.3693,2143.0
30.5365,2065.0
30.7036,2061.0
30.8707,2067.0
31.0378,2036.0
31.2049,2105.0
31.372,2012.0
31.5391,2076.0
31.7062,2092.0
31.8734,1988.0
32.0405,2151.0
32.2076,2109.0
32.3747,2311.0
32.5418,2357.0
32.7089,2178.0
32.876,2115.0
33.0431,2065.0
33.2103,2204.0
33.3774,2100.0
33.5445,2201.0
33.7116,2327.0
33.8787,2380.0
34.0458,2091.0
34.2129,2077.0
34.38,1961.0
34.5472,1980.0
34.7143,2072.0
34.8814,2109.0
35.0485,2028.0
35.2156,1939.0
35.3827,1921.0
35.5498,1896.0
35.7169,1856.0
35.8841,1832.0
36.0512,1773.0
36.2183,1750.0
36.3854,1763.0
36.5525,1688.0
36.7196,1721.0
36.8867,1831.0
37.0538,1797.0
37.221,1703.0
37.3881,1828.0
37.5552,1752.0
37.7223,1703.0
37.8894,1736.0
38.0565,1749.0
38.2236,1720.0
38.3908,1676.0
38.5579,1746.0
38.725,1731.0
38.8921,1723.0
39.0592,1770.0
39.2263,1828.0
39.3934,1976.0
39.5605,1953.0
39.7277,2047.0
39.8948,1971.0
40.0619,1861.0
40.229,1797.0
40.3961,1921.0
40.5632,1971.0
40.7303,2014.0
40.8974,1986.0
41.0646,2029.0
41.2317,1962.0
41.3988,1902.0
41.5659,1762.0
41.733,1808.0
41.9001,1745.0
42.0672,1774.0
42.2343,1697.0
42.4015,1648.0
42.5686,1663.0
42.7357,1705.0
42.9028,1655.0
43.0699,1675.0
43.237,1671.0
43.4041,1658.0
43.5712,1639.0
43.7384,1716.0
43.9055,1597.0
44.0726,1661.0
44.2397,1587.0
44.4068,1563.0
44.5739,1577.0
44.741,1582.0
44.9081,1545.0
45.0753,1646.0
45.2424,1564.0
45.4095,1580.0
45.5766,1558.0
45.7437,1600.0
45.9108,1616.0
46.0779,1581.0
46.245,1541.0
46.4122,1580.0
46.5793,1591.0
46.7464,1589.0
46.9135,1642.0
47.0806,1538.0
47.2477,1569.0
47.4148,1547.0
47.5819,1593.0
47.7491,1528.0
47.9162,1607.0
48.0833,1661.0
48.2504,1646.0
48.4175,1661.0
48.5846,1749.0
48.7517,1980.0
48.9189,2043.0
49.086,1896.0
49.2531,1962.0
49.4202,1814.0
49.5873,1772.0
49.7544,1768.0
49.9215,1873.0
50.0886,1917.0
50.2558,1697.0
50.4229,1592.0
50.59,1559.0
50.7571,1547.0
50.9242,1617.0
51.0913,1590.0
51.2584,1617.0
51.4255,1534.0
51.5927,1510.0
51.7598,1501.0
51.9269,1467.0
52.094,1619.0
52.2611,1620.0
52.4282,1588.0
52.5953,1693.0
52.7624,1651.0
52.9296,1777.0
53.0967,1843.0
53.2638,1878.0
53.4309,1812.0
53.598,1757.0
53.7651,1726.0
53.9322,1656.0
54.0993,1711.0
54.2665,1802.0
54.4336,1887.0
54.6007,1990.0
54.7678,1967.0
54.9349,1922.0
55.102,1964.0
55.2691,1820.0
55.4362,1895.0
55.6034,1922.0
55.7705,1780.0
55.9376,1781.0
56.1047,1747.0
56.2718,1773.0
56.4389,1763.0
56.606,1666.0
56.7731,1732.0
56.9403,1734.0
57.1074,1770.0
57.2745,1741.0
57.4416,1651.0
57.6087,1740.0
57.7758,1612.0
57.9429,1669.0
58.11,1609.0
58.2772,1655.0
58.4443,1587.0
58.6114,1638.0
58.7785,1545.0
58.9456,1640.0
59.1127,1542.0
59.2798,1518.0
59.447,1559.0
59.6141,1573.0
59.7812,1597.0
59.9483,1630.0
60.1154,1569.0
60.2825,1530.0
60.4496,1604.0
60.6167,1627.0
60.7839,1658.0
60.951,1578.0
61.1181,1613.0
61.2852,1512.0
61.4523,1587.0
61.6194,1578.0
61.7865,1582.0
61.9536,1585.0
62.1208,1642.0
62.2879,1749.0
62.455,1708.0
62.6221,1757.0
62.7892,1764.0
62.9563,1624.0
63.1234,1613.0
63.2905,1722.0
63.4577,1642.0
63.6248,1684.0
63.7919,1670.0
63.959,1640.0
64.1261,1566.0
64.2932,1512.0
64.4603,1549.0
64.6274,1526.0
64.7946,1550.0
64.9617,1502.0
65.1288,1465.0
65.2959,1501.0
65.463,1519.0
65.6301,1541.0
65.7972,1524.0
65.9643,1568.0
66.1315,1554.0
66.2986,1568.0
66.4657,1522.0
66.6328,1511.0
66.7999,1490.0
66.967,1459.0
67.1341,1535.0
67.3012,1507.0
67.4684,1559.0
67.6355,1475.0
67.8026,1515.0
67.9697,1526.0
68.1368,1513.0
68.3039,1564.0
68.471,1553.0
68.6381,1567.0
68.8053,1471.0
68.9724,1503.0
69.1395,1526.0
69.3066,1517.0
69.4737,1544.0
69.6408,1536.0
69.8079,1497.0
69.975,1507.0
69.9918,1543.0